PROLIFIC_PID,overall_accuracy,practice_accuracy,max_consecutive_identical,percent_fast_trials,rt_sd,percent_missing_AD0,percent_missing_AD50,percent_missing_AD100,percent_missing_AD150,time_taken_minutes,negative_slope,large_angle_accuracy,excluded,exclusion_reason,n_excluded_trials_too_fast,n_excluded_trials_too_slow,n_excluded_trials_outlier
5cd063ce657e300016f6c95a,0.9473684210526315,0.75,3,0.0,1.3701936699803423,0.0,0.0,0.0,0.0,49.81666666666667,False,0.9361702127659575,False,,0,0,0
678e92010390e1c202944292,0.9270833333333334,1.0,4,0.0,0.7331989109128679,0.0,0.0,0.0,0.0,25.73333333333333,False,0.9166666666666666,False,,0,0,2
64013a8e233aaa42388c821f,0.9166666666666666,0.6271186440677966,4,0.0,1.0267035778317208,0.0,0.0,0.0,0.0,35.1,False,0.9166666666666666,False,,0,0,3
676379302839a2e46a4d6de5,0.4895833333333333,0.9090909090909091,5,0.0,0.4013879803039151,0.0,0.0,0.0,0.0,24.016666666666666,False,0.4166666666666667,True,Overall accuracy < 60%,0,0,0
671fbc510bb94767d36db746,0.4479166666666667,0.5344827586206896,12,0.0,1.2872126960382677,0.0,0.0,0.0,0.0,36.48333333333333,False,0.375,True,Overall accuracy < 60%; Identical responses for > 8 consecutive trials,0,0,0
6754d95f656838004bc46eed,0.8804347826086957,0.6956521739130435,5,2.1739130434782608,1.8434974656175078,0.0,0.0,0.0,0.0,49.4,False,0.8913043478260869,False,,2,0,0
6766b76b0b5bf9820e277b72,0.5104166666666666,0.5714285714285714,9,0.0,1.0698784681427116,0.0,0.0,0.0,0.0,46.06666666666667,False,0.5625,True,Overall accuracy < 60%; Identical responses for > 8 consecutive trials,0,0,0
672ba9e5dbe3b9649ad3864d,0.4842105263157895,0.49101796407185627,7,0.0,0.7825227994231359,0.0,0.0,0.0,0.0,60.38333333333333,False,0.5106382978723404,True,Overall accuracy < 60%; Practice accuracy < 50%,0,0,0
64012a2623351894f2917605,0.4895833333333333,0.4485981308411215,10,0.0,0.3099970769528291,0.0,0.0,0.0,0.0,35.2,False,0.5,True,Overall accuracy < 60%; Identical responses for > 8 consecutive trials; Practice accuracy < 50%,0,0,0
675ed2ef6a6a6ae2ce682c30,0.6145833333333334,0.5425531914893617,3,1.0416666666666665,0.8890554567368162,0.0,0.0,0.0,0.0,28.73333333333333,False,0.5625,False,,1,0,6
6761e9f88b9ec3f7f3d16c01,0.8333333333333334,0.7083333333333334,9,0.0,1.303837130610221,0.0,0.0,0.0,0.0,44.75,False,0.875,True,Identical responses for > 8 consecutive trials,0,0,0
5e76d2652d882b2481d65066,0.96875,1.0,5,0.0,0.9610012943328587,0.0,0.0,0.0,0.0,33.55,False,0.9375,False,,0,0,2
671469967e2a4f2e612e3846,0.8947368421052632,0.75,6,0.0,1.2010090439755592,0.0,0.0,0.0,0.0,32.11666666666667,False,0.851063829787234,False,,0,0,2
60a48adfe091e410f4eaba34,0.5729166666666666,0.5524475524475524,7,0.0,1.3786800206791843,0.0,0.0,0.0,0.0,36.15,False,0.4583333333333333,True,Overall accuracy < 60%,0,0,0
65c181b4de219e8c75ae4fb8,0.4787234042553192,0.5714285714285714,4,0.0,1.2833329369997042,0.0,0.0,0.0,0.0,35.8,False,0.425531914893617,True,Overall accuracy < 60%,0,0,0
62964d27c2b2866faa677493,0.40625,0.782608695652174,7,0.0,1.0353770972531928,0.0,0.0,0.0,0.0,42.48333333333333,True,0.3958333333333333,True,Overall accuracy < 60%,0,0,0
651d64f5eb4ac4993ecc5abd,0.9270833333333334,0.9166666666666666,5,0.0,0.9310362874656664,0.0,0.0,0.0,0.0,26.266666666666666,False,0.875,False,,0,0,3
62861bcc5f0edf6340c914df,0.9479166666666666,0.75,5,0.0,0.7836902365921274,0.0,0.0,0.0,0.0,29.766666666666666,False,0.9166666666666666,False,,0,0,4
6773f03382962d5d8c2ca38a,0.8631578947368421,0.6666666666666666,6,0.0,1.2338433029493343,0.0,0.0,0.0,0.0,53.71666666666667,False,0.851063829787234,False,,0,0,3
6721aeda53346fd7b593efd7,0.9479166666666666,0.7714285714285715,6,0.0,0.8479254266464172,0.0,0.0,0.0,0.0,32.13333333333333,False,0.9166666666666666,False,,0,0,0
66bab7aa032ffe5aeb0a3834,0.4838709677419355,0.4767932489451477,7,0.0,1.5598501822104676,0.0,0.0,0.0,0.0,55.73333333333333,True,0.41304347826086957,True,Overall accuracy < 60%; Practice accuracy < 50%,0,0,0
664f408259a7d76b52e2ae25,0.9148936170212766,0.8333333333333334,6,0.0,1.2508742967257365,0.0,0.0,0.0,0.0,27.366666666666667,False,0.9130434782608695,False,,0,0,0
62ffa989dbd072768cd2a14e,0.5208333333333334,0.5487804878048781,6,1.0416666666666665,0.6001161236713699,0.0,0.0,0.0,0.0,86.15,True,0.5833333333333334,True,Overall accuracy < 60%,0,0,0
678fa1020e5289062a7e76f0,0.723404255319149,0.6610169491525424,8,0.0,1.3622301666166916,0.0,0.0,0.0,0.0,47.73333333333333,False,0.5869565217391305,False,,0,0,0
67896c4807b59990758d8491,0.4631578947368421,0.42452830188679247,82,57.89473684210527,0.9039679560873265,0.0,0.0,0.0,0.0,58.5,True,0.48936170212765956,True,Overall accuracy < 60%; Identical responses for > 8 consecutive trials; Fast trials (< 200ms) > 10%; Practice accuracy < 50%,0,0,0
6699571ba83beb19c5acbfef,0.9166666666666666,0.6024096385542169,5,0.0,1.3508195770807299,0.0,0.0,0.0,0.0,37.28333333333333,False,0.875,False,,0,0,2
6788f11866ac65cc607b3c6a,0.5625,0.5575221238938053,10,0.0,0.7339580558758707,0.0,0.0,0.0,0.0,61.66666666666666,False,0.625,True,Overall accuracy < 60%; Identical responses for > 8 consecutive trials,0,0,0
672d053f3563ff089759a66f,0.10416666666666667,1.0,5,0.0,1.0492422902035234,0.0,0.0,0.0,0.0,93.31666666666666,True,0.14583333333333334,True,Overall accuracy < 60%,0,0,0
61233706eb1ec697c18d5aef,0.8260869565217391,0.7272727272727273,7,2.1739130434782608,1.704484701434294,0.0,0.0,0.0,0.0,20.416666666666668,False,0.782608695652174,False,,2,0,0
67822f906480ae6f11bf6942,0.5833333333333334,0.75,19,0.0,1.4015567093555201,0.0,0.0,0.0,0.0,41.7,False,0.6041666666666666,True,Overall accuracy < 60%; Identical responses for > 8 consecutive trials,0,0,0
669adbdb7e97d6e53cb2d924,0.8602150537634409,0.8181818181818182,6,0.0,1.6661065785645421,0.0,0.0,0.0,0.0,36.25,False,0.8043478260869565,False,,0,0,0
67343fb98c1f4f89ea821878,0.6041666666666666,0.6285714285714286,4,0.0,0.703788070921872,0.0,0.0,0.0,0.0,78.35,True,0.5625,False,,0,0,4
6786d027b56713ac675fbbb1,0.2696629213483146,0.6956521739130435,5,0.0,1.642995540226537,0.0,0.0,0.0,0.0,45.016666666666666,False,0.38636363636363635,True,Overall accuracy < 60%,0,0,0
676fac81dc17021dfb5fad67,0.90625,0.9090909090909091,5,0.0,1.3406962673017324,0.0,0.0,0.0,0.0,42.75,False,0.9166666666666666,False,,0,0,2
67880f3fcfe89c43f375f668,0.6421052631578947,0.8333333333333334,5,30.526315789473685,1.3629071566280317,0.0,0.0,0.0,0.0,24.416666666666668,False,0.6382978723404256,True,Fast trials (< 200ms) > 10%,0,0,0
5d634b27e5f92f0017196a3f,0.53125,0.4460093896713615,7,1.0416666666666665,0.5232261166867667,0.0,0.0,0.0,0.0,41.31666666666667,True,0.5208333333333334,True,Overall accuracy < 60%; Practice accuracy < 50%,0,0,0
55ec49b67480920010aaa4e8,0.53125,0.4444444444444444,4,1.0416666666666665,0.4621951937268135,0.0,0.0,0.0,0.0,24.7,True,0.5625,True,Overall accuracy < 60%; Practice accuracy < 50%,0,0,0
612039d9400fae9545b3c5a8,0.9417989417989417,0.6338028169014085,5,0.0,1.4450922627814793,0.0,0.0,0.0,0.0,57.16666666666666,False,0.9148936170212766,False,,0,0,3
65d863e56337aa59292ccd66,0.90625,1.0,4,0.0,0.6001030492647426,0.0,0.0,0.0,0.0,27.83333333333333,False,0.8958333333333334,False,,0,0,3
6727e10a76e80949064e1e6c,0.5208333333333334,0.4647887323943662,5,0.0,1.1081378788349272,0.0,0.0,0.0,0.0,47.85,False,0.5625,True,Overall accuracy < 60%; Practice accuracy < 50%,0,0,0
6110b58d7063061e373e2fbc,0.8210526315789474,0.5588235294117647,8,0.0,1.0910070231549145,0.0,0.0,0.0,0.0,39.45,False,0.8333333333333334,False,,0,0,2
67358110193306101974db30,0.5319148936170213,0.45569620253164556,23,47.87234042553192,0.718718963673559,0.0,0.0,0.0,0.0,50.65,True,0.5217391304347826,True,Overall accuracy < 60%; Identical responses for > 8 consecutive trials; Fast trials (< 200ms) > 10%; Practice accuracy < 50%,0,0,0
678a7c0fa6dada0f1ffae746,0.45263157894736844,0.504950495049505,8,26.31578947368421,1.1257191797899335,0.0,0.0,0.0,0.0,59.266666666666666,True,0.46808510638297873,True,Overall accuracy < 60%; Fast trials (< 200ms) > 10%,0,0,0
676a8044ed42478d4ef6493e,0.5208333333333334,0.45064377682403434,8,2.083333333333333,0.6371381751595285,0.0,0.0,0.0,0.0,60.91666666666666,True,0.5,True,Overall accuracy < 60%; Practice accuracy < 50%,0,0,0
60fdc934e81b93f92f561d76,0.9139784946236559,0.782608695652174,6,0.0,1.5282346277867873,0.0,0.0,0.0,0.0,30.95,False,0.8478260869565217,False,,0,0,0
67147a6a2c208253099ab82b,0.4166666666666667,0.5062761506276151,6,0.0,0.7216663220586369,0.0,0.0,0.0,0.0,32.45,True,0.4791666666666667,True,Overall accuracy < 60%,0,0,0
6127017baee75f10aa174139,0.9473684210526315,0.8181818181818182,5,0.0,1.6172052001911188,0.0,0.0,0.0,0.0,34.4,False,0.9583333333333334,False,,0,0,1
6655fd511b6c8d1fd05de12d,0.7894736842105263,0.782608695652174,4,0.0,1.3025240914073448,0.0,0.0,0.0,0.0,50.93333333333333,False,0.7291666666666666,False,,0,0,1
5e968e6744b6d010b16540a4,0.9052631578947369,0.9090909090909091,4,0.0,1.25681860489058,0.0,0.0,0.0,0.0,38.6,False,0.8723404255319149,False,,0,0,2
6612a3d099bbffc5cc1eebff,0.5208333333333334,0.5089820359281437,6,0.0,0.6819702763811079,0.0,0.0,0.0,0.0,42.45,False,0.4791666666666667,True,Overall accuracy < 60%,0,0,0
673a37f0ad04c995c8322ca6,1.0,0.9,3,0.0,1.461434651503755,0.0,0.0,0.0,0.0,33.6,False,1.0,False,,0,0,2
66f8367b5310ebb97346b93c,0.8947368421052632,0.5666666666666667,4,0.0,0.9711501318794619,0.0,0.0,0.0,0.0,35.31666666666667,False,0.8936170212765957,False,,0,0,3
610341bbc7f7114aea9a2cea,0.851063829787234,0.75,6,0.0,1.4930368775677967,0.0,0.0,0.0,0.0,31.98333333333333,False,0.8043478260869565,False,,0,0,0
671eff2e0b8f048504452726,0.5208333333333334,0.5915492957746479,18,0.0,1.319830714699357,0.0,0.0,0.0,0.0,38.16666666666666,False,0.5208333333333334,True,Overall accuracy < 60%; Identical responses for > 8 consecutive trials,0,0,0
673e759016f888e8212c0c1f,0.90625,0.782608695652174,4,0.0,0.7725032325764137,0.0,0.0,0.0,0.0,31.25,False,0.8958333333333334,False,,0,0,2
6705779b28e9a54f7b3b3535,0.5729166666666666,0.40336134453781514,5,0.0,1.27110155497043,0.0,0.0,0.0,0.0,29.08333333333333,False,0.5625,True,Overall accuracy < 60%; Practice accuracy < 50%,0,0,0
678e5e240021ccd474206641,0.5666666666666667,0.6363636363636364,9,1.1111111111111112,1.584505143607493,0.0,0.0,0.0,0.0,62.516666666666666,False,0.5333333333333333,True,Overall accuracy < 60%; Identical responses for > 8 consecutive trials,0,0,0
6646abc0720d1baaa7e0af4c,0.5368421052631579,0.7083333333333334,11,0.0,1.216874234541947,0.0,0.0,0.0,0.0,28.516666666666666,False,0.5531914893617021,True,Overall accuracy < 60%; Identical responses for > 8 consecutive trials,0,0,0
67851f4cba98f2087f182764,0.44680851063829785,0.43859649122807015,7,0.0,1.2277180575136697,0.0,0.0,0.0,0.0,57.15,False,0.40425531914893614,True,Overall accuracy < 60%; Practice accuracy < 50%,0,0,0
664ba1d1d71301161344e2a5,0.22105263157894736,0.5555555555555556,7,1.0526315789473684,1.5375254480130707,0.0,0.0,0.0,0.0,29.85,False,0.2708333333333333,True,Overall accuracy < 60%,0,0,0
6668d4917e343a318af11adf,0.5208333333333334,0.3780487804878049,20,0.0,0.7834602912468036,0.0,0.0,0.0,0.0,47.16666666666666,False,0.5208333333333334,True,Overall accuracy < 60%; Identical responses for > 8 consecutive trials; Practice accuracy < 50%,0,0,0
65fa95fafeda35caf378b6f9,0.9479166666666666,0.9090909090909091,3,0.0,0.9787975078653954,0.0,0.0,0.0,0.0,34.95,False,0.9166666666666666,False,,0,0,1
5d776e218a8d1d00166d36a6,0.8,0.6875,9,0.0,1.3390603410095088,0.0,0.0,0.0,0.0,27.3,False,0.7872340425531915,True,Identical responses for > 8 consecutive trials,0,0,0
6772e011adc3bb3fd579cdb9,0.4895833333333333,0.6024096385542169,5,0.0,0.43321611542816213,0.0,0.0,0.0,0.0,102.53333333333332,False,0.4583333333333333,True,Overall accuracy < 60%,0,0,0
67519b91595db9a046359da0,0.9583333333333334,1.0,4,0.0,1.2020167090071818,0.0,0.0,0.0,0.0,37.266666666666666,False,0.9166666666666666,False,,0,0,2
66122c3b55a1487b4e58e292,0.8229166666666666,0.8333333333333334,5,0.0,0.660547771549419,0.0,0.0,0.0,0.0,29.75,False,0.75,False,,0,0,0
6575c6e1563027adb8f299cb,0.96875,1.0,4,0.0,1.0192154225897176,0.0,0.0,0.0,0.0,29.05,False,0.9375,False,,0,0,0
675f432df87b18ecba0964f4,0.4791666666666667,0.5211267605633803,5,6.25,1.0238631990733267,0.0,0.0,0.0,0.0,44.05,True,0.625,True,Overall accuracy < 60%,0,0,0
672a89bc5e3d67a9fdbdf803,0.8387096774193549,0.5277777777777778,5,0.0,1.161058233053928,0.0,0.0,0.0,0.0,46.05,False,0.7659574468085106,False,,0,0,1
5a9bbda1f6dfdd0001ea9639,0.9473684210526315,1.0,4,0.0,1.4648413126106934,0.0,0.0,0.0,0.0,27.716666666666665,False,0.9574468085106383,False,,0,0,3
660e2337aad9e33736f08e84,0.7978723404255319,0.75,12,0.0,1.6517597409147322,0.0,0.0,0.0,0.0,34.28333333333333,False,0.6956521739130435,True,Identical responses for > 8 consecutive trials,0,0,0
605e42cc59833acecfd3f301,0.8854166666666666,0.9166666666666666,7,0.0,0.9155572200324285,0.0,0.0,0.0,0.0,34.516666666666666,False,0.7916666666666666,False,,0,0,3
677d3cc83d0aa6a39541f5d6,0.8645833333333334,0.75,3,0.0,0.9976631852536838,0.0,0.0,0.0,0.0,38.88333333333333,False,0.8541666666666666,False,,0,0,3
66e7a85e45c1132f1e2d12b6,0.9578947368421052,0.75,4,0.0,1.2618933662417113,0.0,0.0,0.0,0.0,30.616666666666667,False,0.9361702127659575,False,,0,0,0
667af5cc382d3037050e3632,0.9247311827956989,0.7021276595744681,5,0.0,1.5734636366939436,0.0,0.0,0.0,0.0,39.75,False,0.8666666666666667,False,,0,0,0
65d563ecf8df20ade2f17888,0.8829787234042553,0.8333333333333334,5,1.0638297872340425,1.372011361239214,0.0,0.0,0.0,0.0,41.333333333333336,False,0.851063829787234,False,,1,0,1
5d27851db6eb920018a5fb27,0.8297872340425532,0.7727272727272727,6,0.0,1.3826383643381566,0.0,0.0,0.0,0.0,36.75,False,0.8260869565217391,False,,0,0,1
5eddaa6d115bb4ac7e59f153,0.9157894736842105,0.8181818181818182,4,0.0,1.07871741377925,0.0,0.0,0.0,0.0,27.216666666666665,False,0.875,False,,0,0,1
653ed34dfa601f3952c72ed4,0.7604166666666666,0.6382978723404256,7,0.0,1.6112085671329557,0.0,0.0,0.0,0.0,36.41666666666666,False,0.6458333333333334,False,,0,0,0
63d5decffe6025fec6a381b0,0.4375,0.497907949790795,5,0.0,0.5673334317331047,0.0,0.0,0.0,0.0,35.13333333333333,True,0.4166666666666667,True,Overall accuracy < 60%; Practice accuracy < 50%,0,0,0
651b43625c3bc6e2217a7e24,0.5,0.5833333333333334,7,5.208333333333334,0.36046373630780454,0.0,0.0,0.0,0.0,28.616666666666667,False,0.4375,True,Overall accuracy < 60%,0,0,0
674f479b2a4ef75e4551f258,0.5833333333333334,0.5833333333333334,9,0.0,0.9674346958422043,0.0,0.0,0.0,0.0,36.3,True,0.5416666666666666,True,Overall accuracy < 60%; Identical responses for > 8 consecutive trials,0,0,0
67438c306d8298ec577da281,0.46875,0.5569620253164557,5,0.0,0.35880633764957387,0.0,0.0,0.0,0.0,43.833333333333336,True,0.4791666666666667,True,Overall accuracy < 60%,0,0,0
5df967d2f6191f6e87b236e6,0.9479166666666666,0.75,6,0.0,1.0064769126559385,0.0,0.0,0.0,0.0,23.816666666666663,False,0.9166666666666666,False,,0,0,3
678434b875eab5b07a505724,0.9680851063829787,1.0,3,0.0,1.522816398181834,0.0,0.0,0.0,0.0,39.56666666666667,False,0.9782608695652174,False,,0,0,0
66849ebd4dd65cfd282d2ad5,0.5208333333333334,0.5882352941176471,9,0.0,0.3200678980443878,0.0,0.0,0.0,0.0,42.8,False,0.4791666666666667,True,Overall accuracy < 60%; Identical responses for > 8 consecutive trials,0,0,0
5e4e844553bc702cdf68404d,0.59375,0.6666666666666666,6,0.0,0.40989630387431475,0.0,0.0,0.0,0.0,39.03333333333333,False,0.4166666666666667,True,Overall accuracy < 60%,0,0,0
6500aa732c4f0eb077f8c809,0.5520833333333334,0.6666666666666666,8,0.0,0.8773556416844962,0.0,0.0,0.0,0.0,105.38333333333334,False,0.4791666666666667,True,Overall accuracy < 60%,0,0,0
671e39c25e5e3f340a6f21d4,0.5208333333333334,0.574468085106383,4,2.083333333333333,0.6979964930509347,0.0,0.0,0.0,0.0,49.7,False,0.5625,True,Overall accuracy < 60%,0,0,0
58a229e74d580c0001e0a766,0.9583333333333334,0.75,6,0.0,0.9343784956399355,0.0,0.0,0.0,0.0,30.15,False,0.9583333333333334,False,,0,0,3
630386f64c5bbd56ab1c3b0f,0.9263157894736842,0.75,4,0.0,1.1647958378719645,0.0,0.0,0.0,0.0,31.316666666666663,False,0.8723404255319149,False,,0,0,0
66c9071f0a3b0e1d3a041c01,0.9456521739130435,0.6764705882352942,6,0.0,1.6398897268298889,0.0,0.0,0.0,0.0,35.766666666666666,False,0.9555555555555556,False,,0,0,1
662ddcfc1103d1acda67d937,0.9578947368421052,0.8181818181818182,5,0.0,1.1000140501678282,0.0,0.0,0.0,0.0,28.33333333333333,False,0.9148936170212766,False,,0,0,1
5e7987df47422a5443426cd7,0.9263157894736842,1.0,6,0.0,1.1732509620497773,0.0,0.0,0.0,0.0,28.35,False,0.9148936170212766,False,,0,0,3
661ae93e33b51f5d31a8c3bb,0.5483870967741935,0.4957983193277311,5,0.0,1.1112276369660192,0.0,0.0,0.0,0.0,49.75,True,0.45652173913043476,True,Overall accuracy < 60%; Practice accuracy < 50%,0,0,0
678ba680eefc2d7fd8559a03,0.9148936170212766,0.5964912280701754,4,1.0638297872340425,1.4237986262829503,0.0,0.0,0.0,0.0,50.11666666666667,False,0.9148936170212766,False,,1,0,1
6779262b285a5b12c721ecee,0.8478260869565217,0.8181818181818182,7,1.0869565217391304,1.3740241773257764,0.0,0.0,0.0,0.0,48.5,False,0.8,False,,1,0,0
67704d25c22e3bfcf98ab4fc,0.5625,0.6170212765957447,12,0.0,0.9836044201094116,0.0,0.0,0.0,0.0,30.85,False,0.5833333333333334,True,Overall accuracy < 60%; Identical responses for > 8 consecutive trials,0,0,0
671d2abf2ba7384f9b45678a,0.968421052631579,0.8260869565217391,4,1.0526315789473684,1.3878262622006226,0.0,0.0,0.0,0.0,36.96666666666667,False,0.9787234042553191,False,,1,0,1
66370a20a4b5b1a460904760,0.9895833333333334,0.9090909090909091,4,0.0,1.1455401729264572,0.0,0.0,0.0,0.0,35.95,False,0.9791666666666666,False,,0,0,3
5d47901043518d0017bf3c04,0.5208333333333334,0.6388888888888888,12,0.0,0.4755882805684294,0.0,0.0,0.0,0.0,24.933333333333334,False,0.5416666666666666,True,Overall accuracy < 60%; Identical responses for > 8 consecutive trials,0,0,0
6535d3f1b4ff80adff474548,0.96875,0.8333333333333334,4,0.0,1.0255381051689443,0.0,0.0,0.0,0.0,24.966666666666665,False,0.9583333333333334,False,,0,0,3
678d4b5574c6a54d8f4cafd8,0.9368421052631579,0.8333333333333334,4,0.0,0.9200606549921052,0.0,0.0,0.0,0.0,27.766666666666666,False,0.9583333333333334,False,,0,0,2
5b19f4854c72120001f1e1b3,0.9479166666666666,0.8181818181818182,4,0.0,0.6435754901398685,0.0,0.0,0.0,0.0,57.78333333333333,False,0.9166666666666666,False,,0,0,1
67856f922cc646ac823a1660,0.3125,0.5833333333333334,8,0.0,1.0791559252489884,0.0,0.0,0.0,0.0,33.1,False,0.3541666666666667,True,Overall accuracy < 60%,0,0,0
668d44c46cb23976673acd95,0.46875,0.75,6,22.916666666666664,0.7728623559556316,0.0,0.0,0.0,0.0,21.966666666666665,False,0.4791666666666667,True,Overall accuracy < 60%; Fast trials (< 200ms) > 10%,0,0,0
6766a8b9f2f6140bdb9fab39,0.5729166666666666,0.6571428571428571,10,0.0,0.760409935062009,0.0,0.0,0.0,0.0,47.13333333333333,False,0.5,True,Overall accuracy < 60%; Identical responses for > 8 consecutive trials,0,0,0
6736142695794b6108842ed2,0.946236559139785,0.9166666666666666,4,1.0752688172043012,1.4293738304242716,0.0,0.0,0.0,0.0,29.03333333333333,False,0.8913043478260869,False,,1,0,2
66e2a683a6aed2b156557f9d,0.9791666666666666,0.8333333333333334,5,0.0,1.2564650147665222,0.0,0.0,0.0,0.0,34.96666666666667,False,0.9791666666666666,False,,0,0,3
664f98c80beb5400a141ac91,0.7473684210526316,0.8333333333333334,10,0.0,1.1162468311847067,0.0,0.0,0.0,0.0,29.83333333333333,False,0.6595744680851063,True,Identical responses for > 8 consecutive trials,0,0,0
676063838d4db0d3eaa69c2b,0.5,0.75,96,38.54166666666667,1.2335765422866245,0.0,0.0,0.0,0.0,38.38333333333333,True,0.5,True,Overall accuracy < 60%; Identical responses for > 8 consecutive trials; Fast trials (< 200ms) > 10%,0,0,0
5b68c9eb87af310001584803,0.9375,0.9166666666666666,5,0.0,0.7358357575132427,0.0,0.0,0.0,0.0,24.1,False,0.9166666666666666,False,,0,0,4
661ea4cacedd4c83df3a2dcb,0.5368421052631579,0.5714285714285714,12,0.0,1.1142509602021038,0.0,0.0,0.0,0.0,30.383333333333333,True,0.5106382978723404,True,Overall accuracy < 60%; Identical responses for > 8 consecutive trials,0,0,0
666640831e2f8d963f8c528f,0.6458333333333334,0.5208333333333334,6,0.0,1.1737271885401739,0.0,0.0,0.0,0.0,40.38333333333333,False,0.625,False,,0,0,0
678851f427536397f63120bf,0.9270833333333334,0.9090909090909091,4,0.0,1.2672821845022513,0.0,0.0,0.0,0.0,32.766666666666666,False,0.9166666666666666,False,,0,0,1
678aa22eb5db2af9be397452,0.5,0.6626506024096386,8,0.0,1.1371400134473828,0.0,0.0,0.0,0.0,40.21666666666667,False,0.4375,True,Overall accuracy < 60%,0,0,0
60a1e1f4a3707c983a98f185,0.8645833333333334,0.6166666666666667,6,0.0,1.389170490212484,0.0,0.0,0.0,0.0,29.9,False,0.7916666666666666,False,,0,0,6
676eb8d5dd1b9e51d21ec734,0.7916666666666666,0.5084745762711864,6,0.0,1.3190884389019324,0.0,0.0,0.0,0.0,51.03333333333333,False,0.7708333333333334,False,,0,0,2
676b5cae2bdeb2fceba3e9cb,0.5729166666666666,0.9090909090909091,10,0.0,0.9135216225649179,0.0,0.0,0.0,0.0,28.55,False,0.5,True,Overall accuracy < 60%; Identical responses for > 8 consecutive trials,0,0,0
656cef93133dd04969014614,0.9263157894736842,0.9166666666666666,4,1.0526315789473684,1.0790396475710404,0.0,0.0,0.0,0.0,55.06666666666667,False,0.9148936170212766,False,,1,0,2
5d4869cc692e5400197a980c,0.8854166666666666,0.8181818181818182,6,0.0,1.2098068288153467,0.0,0.0,0.0,0.0,26.416666666666668,False,0.8125,False,,0,0,1
66ae394dd6f0020399d3b887,0.8404255319148937,1.0,5,0.0,0.7250844832204988,0.0,0.0,0.0,0.0,24.816666666666663,False,0.7659574468085106,False,,0,0,2
66bfd3867e3dd5e2c19650b9,0.6979166666666666,0.6111111111111112,12,0.0,0.8846562645074283,0.0,0.0,0.0,0.0,45.88333333333333,False,0.625,True,Identical responses for > 8 consecutive trials,0,0,0
561487ad7ffc8a0012812266,0.9157894736842105,1.0,3,1.0526315789473684,1.2929408523091799,0.0,0.0,0.0,0.0,33.05,False,0.8958333333333334,False,,1,0,2
66505efb53953d2da6e1a8cd,0.8947368421052632,0.625,4,0.0,1.1879627273695337,0.0,0.0,0.0,0.0,33.0,False,0.851063829787234,False,,0,0,2
67529d0aecb73bfe140d521f,0.8534031413612565,0.7428571428571429,7,0.0,1.3418057775614032,0.0,0.0,0.0,0.0,50.3,False,0.7789473684210526,False,,0,0,4
67855ba77a8e1aaf8e477978,0.9270833333333334,0.7083333333333334,5,0.0,1.2726411624796283,0.0,0.0,0.0,0.0,29.516666666666666,False,0.8958333333333334,False,,0,0,2
677c4a2cd686c6b6cfd1ba2a,0.8645833333333334,0.782608695652174,5,0.0,1.3057197420300322,0.0,0.0,0.0,0.0,42.85,False,0.8333333333333334,False,,0,0,2
6659f937e570ab09f05021a3,0.9583333333333334,0.9090909090909091,5,0.0,1.0025007721920287,0.0,0.0,0.0,0.0,28.35,False,0.9375,False,,0,0,3
670cf1827819b4f39133584b,0.42391304347826086,0.8181818181818182,15,0.0,1.0235945434771603,0.0,0.0,0.0,0.0,26.566666666666663,False,0.391304347826087,True,Overall accuracy < 60%; Identical responses for > 8 consecutive trials,0,0,0
6773fd82b205d22a2e097d3f,0.4421052631578947,0.4957983193277311,5,0.0,0.3810423040620063,0.0,0.0,0.0,0.0,65.85,False,0.5106382978723404,True,Overall accuracy < 60%; Practice accuracy < 50%,0,0,0
663b638be7226d4e3fcc255f,0.7311827956989247,0.75,5,0.0,1.3607404064814235,0.0,0.0,0.0,0.0,49.6,False,0.6888888888888889,False,,0,0,2
63ebd39a63bb79b50d438ab7,0.7708333333333334,0.8181818181818182,6,0.0,1.2131065433152237,0.0,0.0,0.0,0.0,57.95,False,0.6875,False,,0,0,2
63d7fb6ee49281f6c41d6630,0.4479166666666667,0.5235602094240838,5,0.0,0.4810648032676912,0.0,0.0,0.0,0.0,30.4,False,0.4166666666666667,True,Overall accuracy < 60%,0,0,0
655fd5be8c6f7bfe39e75e96,0.8854166666666666,0.7391304347826086,4,0.0,1.183309694458261,0.0,0.0,0.0,0.0,33.0,False,0.8541666666666666,False,,0,0,3
66ee186efc9a208ef9446a30,0.9789473684210527,0.8333333333333334,4,0.0,1.3101517472336537,0.0,0.0,0.0,0.0,39.66666666666666,False,0.9787234042553191,False,,0,0,1
60e5cb4ca01a593fce9a379d,0.59375,0.425531914893617,14,0.0,1.4468398554638147,0.0,0.0,0.0,0.0,28.8,False,0.5625,True,Overall accuracy < 60%; Identical responses for > 8 consecutive trials; Practice accuracy < 50%,0,0,0
5d91daf3704e790018f47229,0.84375,1.0,6,0.0,0.8097990117084826,0.0,0.0,0.0,0.0,22.23333333333333,False,0.6875,False,,0,0,2
66625801c143ca548bcac338,0.875,0.75,7,0.0,0.886139119883767,0.0,0.0,0.0,0.0,39.15,False,0.875,False,,0,0,4
676866e58c692de18dac2de9,0.53125,0.5,8,0.0,1.1795662380109322,0.0,0.0,0.0,0.0,47.2,True,0.5625,True,Overall accuracy < 60%,0,0,0
653d3b418bce22526d2639b4,0.9473684210526315,0.8333333333333334,3,0.0,1.1039928811340338,0.0,0.0,0.0,0.0,28.916666666666668,False,0.9787234042553191,False,,0,0,2
6779d0e560ce37d982f31caf,0.96875,0.5487804878048781,4,0.0,1.028367237364585,0.0,0.0,0.0,0.0,34.833333333333336,False,1.0,False,,0,0,2
678b95e7567348686a870e6b,0.9166666666666666,0.8181818181818182,5,0.0,0.766016843706524,0.0,0.0,0.0,0.0,58.28333333333333,False,0.8541666666666666,False,,0,0,2
67094b39bddd9489c48cdc8f,0.6770833333333334,0.75,7,0.0,0.7815227485997751,0.0,0.0,0.0,0.0,69.45,False,0.5,False,,0,0,1
654e6dcbb060f1ea2d712339,0.7894736842105263,0.6521739130434783,5,0.0,1.5138082588314015,0.0,0.0,0.0,0.0,32.583333333333336,False,0.6875,False,,0,0,1
6750c18b7e2026c4edd0ad26,0.5416666666666666,0.42857142857142855,9,0.0,0.5252318432777876,0.0,0.0,0.0,0.0,45.25,True,0.5833333333333334,True,Overall accuracy < 60%; Identical responses for > 8 consecutive trials; Practice accuracy < 50%,0,0,0
671f3e367fa293418ae68c42,0.5416666666666666,0.38197424892703863,6,82.29166666666666,0.23796598238388994,0.0,0.0,0.0,0.0,36.55,False,0.6041666666666666,True,Overall accuracy < 60%; Fast trials (< 200ms) > 10%; Practice accuracy < 50%,0,0,0
66046ee084b12b781cb49495,0.5520833333333334,0.6595744680851063,8,0.0,0.880752025596368,0.0,0.0,0.0,0.0,28.766666666666666,False,0.5208333333333334,True,Overall accuracy < 60%,0,0,0
673f18bb08e7ff5ef549e488,0.5052631578947369,0.7083333333333334,9,0.0,1.1683394669770872,0.0,0.0,0.0,0.0,60.13333333333333,False,0.5,True,Overall accuracy < 60%; Identical responses for > 8 consecutive trials,0,0,0
65cba5349f4e1e5dfbe80fe8,0.96875,0.9166666666666666,4,0.0,1.0218488764030327,0.0,0.0,0.0,0.0,27.1,False,0.9791666666666666,False,,0,0,1
67227eb3d24e7ab203397120,0.4270833333333333,0.5421686746987951,6,0.0,0.7534963846494716,0.0,0.0,0.0,0.0,36.0,True,0.3333333333333333,True,Overall accuracy < 60%,0,0,0
672d770786fa273d84b761d2,0.9583333333333334,0.6101694915254238,4,0.0,1.1245966010300075,0.0,0.0,0.0,0.0,32.85,False,0.9375,False,,0,0,3
66f6e3a582de0614bd19b481,0.5208333333333334,0.5492957746478874,7,0.0,1.2157943638290238,0.0,0.0,0.0,0.0,46.63333333333333,False,0.4791666666666667,True,Overall accuracy < 60%,0,0,0
66fb8a3730fd6deba2e671e3,0.8842105263157894,0.8181818181818182,6,0.0,1.3899237033947867,0.0,0.0,0.0,0.0,36.35,False,0.851063829787234,False,,0,0,2
67813733b9f7bd24cb2745b4,0.9578947368421052,0.8181818181818182,4,0.0,1.4063362606217369,0.0,0.0,0.0,0.0,54.016666666666666,False,0.9148936170212766,False,,0,0,2
5f81fc9446ee002f681ea5e3,0.9583333333333334,0.9090909090909091,3,0.0,1.2291419520460625,0.0,0.0,0.0,0.0,64.86666666666666,False,0.9583333333333334,False,,0,0,2
66969c9921e4f92ad108ed4c,0.875,0.8333333333333334,4,0.0,1.004488031488434,0.0,0.0,0.0,0.0,40.18333333333333,False,0.8125,False,,0,0,2
66dd097265650e0dec23231f,0.9157894736842105,0.7391304347826086,4,0.0,1.1160540797773564,0.0,0.0,0.0,0.0,31.28333333333333,False,0.8723404255319149,False,,0,0,2
66463ff40a36377060b19272,0.6914893617021277,0.6271186440677966,12,0.0,1.5750503308089339,0.0,0.0,0.0,0.0,44.21666666666667,False,0.6956521739130435,True,Identical responses for > 8 consecutive trials,0,0,0
67896102d98295a520a25ebb,0.9052631578947369,0.7083333333333334,6,0.0,1.057964321242109,0.0,0.0,0.0,0.0,42.56666666666667,False,0.8333333333333334,False,,0,0,0
66b435b1d2d981a3ab684c2d,0.4631578947368421,0.5957446808510638,5,0.0,1.235703958209128,0.0,0.0,0.0,0.0,32.083333333333336,False,0.48936170212765956,True,Overall accuracy < 60%,0,0,0
677fafc0a5ea31abbf20ebad,0.8723404255319149,0.524390243902439,5,0.0,1.375659360750725,0.0,0.0,0.0,0.0,64.13333333333334,False,0.7659574468085106,False,,0,0,1
590ffed3f128850001ada77b,0.9270833333333334,0.8181818181818182,5,0.0,1.058713511767938,0.0,0.0,0.0,0.0,43.0,False,0.8958333333333334,False,,0,0,3
67842352fc58491ff1f4de9d,0.9789473684210527,0.8333333333333334,4,0.0,1.4352129898729706,0.0,0.0,0.0,0.0,41.23333333333333,False,0.9791666666666666,False,,0,0,1
6776957e09a543d5a21c521a,0.4105263157894737,0.5714285714285714,6,0.0,0.8805498988132995,0.0,0.0,0.0,0.0,52.75,True,0.3541666666666667,True,Overall accuracy < 60%,0,0,0
6779e07aeb6a0e66e84ae0e7,0.96875,1.0,5,0.0,0.8453564768678691,0.0,0.0,0.0,0.0,25.53333333333333,False,0.9375,False,,0,0,2
673594215b1a0b92d5835525,0.84375,0.45454545454545453,6,0.0,1.446986875832755,0.0,0.0,0.0,0.0,96.53333333333332,False,0.75,True,Practice accuracy < 50%,0,0,0
6501c0a2e788b5556c24569d,0.8842105263157894,0.9166666666666666,7,0.0,1.2868406983620027,0.0,0.0,0.0,0.0,36.21666666666667,False,0.8297872340425532,False,,0,0,4
66243f204cef464daff99f8d,0.9479166666666666,0.9090909090909091,5,0.0,1.4571118950504003,0.0,0.0,0.0,0.0,30.433333333333334,False,0.8958333333333334,False,,0,0,3
677614004b333b9a50de9d41,0.5684210526315789,0.4597156398104265,8,0.0,1.1158158630475028,0.0,0.0,0.0,0.0,65.76666666666667,True,0.5625,True,Overall accuracy < 60%; Practice accuracy < 50%,0,0,0
6643bcf4ed868a9901a9dd7d,0.9583333333333334,1.0,5,0.0,0.491064871259478,0.0,0.0,0.0,0.0,28.3,False,0.9375,False,,0,0,3
67683d2ef4617ea5d90b7539,0.5,0.5555555555555556,10,2.127659574468085,0.9775448409350149,0.0,0.0,0.0,0.0,37.1,False,0.4782608695652174,True,Overall accuracy < 60%; Identical responses for > 8 consecutive trials,0,0,0
676e81c9c452593cbf114baf,0.8421052631578947,0.8333333333333334,5,1.0526315789473684,1.379650100788132,0.0,0.0,0.0,0.0,67.05,False,0.851063829787234,False,,1,0,2
6747d17ec4d287d32e597fa9,0.8645833333333334,0.6097560975609756,6,0.0,0.5448203594238776,0.0,0.0,0.0,0.0,48.03333333333333,False,0.7708333333333334,False,,0,0,1
5cf398a1e55efc000127adae,0.6875,0.518324607329843,6,0.0,0.7307455555612964,0.0,0.0,0.0,0.0,37.66666666666666,False,0.5833333333333334,False,,0,0,5
674083da048a73d78070ea5b,0.5416666666666666,0.49166666666666664,32,86.45833333333334,0.4418469397688684,0.0,0.0,0.0,0.0,55.21666666666667,False,0.4791666666666667,True,Overall accuracy < 60%; Identical responses for > 8 consecutive trials; Fast trials (< 200ms) > 10%; Practice accuracy < 50%,0,0,0
5d76d2f7daf4bf00164d585b,0.7912087912087912,0.8181818181818182,5,3.296703296703297,2.1186583397790937,0.0,0.0,0.0,0.0,103.21666666666668,False,0.6818181818181818,False,,3,0,2
610b002738dd01f26e493999,0.8936170212765957,0.75,7,1.0638297872340425,1.5069057050260584,0.0,0.0,0.0,0.0,45.23333333333333,False,0.8478260869565217,False,,1,0,0
5edc7aed858a159580341afa,0.49473684210526314,0.6111111111111112,14,0.0,1.2873384746088676,0.0,0.0,0.0,0.0,34.483333333333334,False,0.5,True,Overall accuracy < 60%; Identical responses for > 8 consecutive trials,0,0,0
678553764d429ce5b3d40f4c,0.8333333333333334,0.8260869565217391,6,0.0,0.8067362786306141,0.0,0.0,0.0,0.0,30.883333333333333,False,0.8125,False,,0,0,2
672ff021dad78d519a50f64a,0.5368421052631579,0.8333333333333334,10,0.0,1.0304062206783022,0.0,0.0,0.0,0.0,50.98333333333333,False,0.40425531914893614,True,Overall accuracy < 60%; Identical responses for > 8 consecutive trials,0,0,0
677bbfba3b742e3a5bf9a5e7,0.5104166666666666,0.5421686746987951,31,16.666666666666664,1.6815377424281999,0.0,0.0,0.0,0.0,52.93333333333333,True,0.5208333333333334,True,Overall accuracy < 60%; Identical responses for > 8 consecutive trials; Fast trials (< 200ms) > 10%,0,0,0
5ec0ba1bfa01894cceaa1b8e,0.9270833333333334,0.8181818181818182,5,0.0,0.9493250619496011,0.0,0.0,0.0,0.0,36.516666666666666,False,0.9166666666666666,False,,0,0,2
678e9a84c6c7879d007bbf4e,0.8645833333333334,0.9090909090909091,3,0.0,1.2336620788629928,0.0,0.0,0.0,0.0,39.36666666666667,False,0.8333333333333334,False,,0,0,5
678969200a76abe09fd2a75c,0.776595744680851,0.8181818181818182,7,0.0,1.3305017709287428,0.0,0.0,0.0,0.0,55.73333333333333,False,0.6808510638297872,False,,0,0,1
677fe9d3bafd440269d2ef89,0.8631578947368421,0.5032258064516129,5,0.0,1.2052205191947316,0.0,0.0,0.0,0.0,40.8,False,0.8333333333333334,False,,0,0,3
66564c348f25a6749f79a714,0.4895833333333333,0.7391304347826086,5,0.0,0.573096315406456,0.0,0.0,0.0,0.0,28.5,False,0.4375,True,Overall accuracy < 60%,0,0,0
6636a7456e7f277f59dda9bd,0.9456521739130435,0.5327102803738317,6,0.0,1.514159510924596,0.0,0.0,0.0,0.0,32.71666666666667,False,0.9111111111111111,False,,0,0,3
66f5c81fa771db6db1bc2382,0.5625,0.5324675324675324,19,93.75,0.11712286748419072,0.0,0.0,0.0,0.0,30.03333333333333,False,0.5416666666666666,True,Overall accuracy < 60%; Identical responses for > 8 consecutive trials; Fast trials (< 200ms) > 10%; RT SD < 120ms,0,0,0
6738d09a032bf7224008ce7e,0.4479166666666667,0.5139664804469274,7,0.0,0.8854493473357854,0.0,0.0,0.0,0.0,47.36666666666667,False,0.5,True,Overall accuracy < 60%,0,0,0
6773f4dfb59cda6e2414cb19,0.9166666666666666,1.0,7,0.0,1.232267537208853,0.0,0.0,0.0,0.0,44.48333333333333,False,0.8958333333333334,False,,0,0,0
66463d3560eac977430ac716,0.8105263157894737,0.6857142857142857,5,0.0,1.8001344513976234,0.0,0.0,0.0,0.0,28.58333333333333,False,0.7446808510638298,False,,0,0,1
664993e12a5b629050529e17,0.8617021276595744,0.8333333333333334,9,0.0,1.2306949255021853,0.0,0.0,0.0,0.0,40.86666666666667,False,0.8260869565217391,True,Identical responses for > 8 consecutive trials,0,0,0
61008f090e777a2b47f1ad76,0.4895833333333333,0.5729166666666666,5,37.5,0.38852657877765157,0.0,0.0,0.0,0.0,24.166666666666668,False,0.4583333333333333,True,Overall accuracy < 60%; Fast trials (< 200ms) > 10%,0,0,0
657ca800404c8884226c8f42,0.9052631578947369,0.9166666666666666,5,1.0526315789473684,1.2646661831326236,0.0,0.0,0.0,0.0,34.93333333333333,False,0.851063829787234,False,,1,0,1
564e93659b124900127eb55b,0.9583333333333334,0.9166666666666666,4,0.0,0.7730364462985695,0.0,0.0,0.0,0.0,66.71666666666667,False,0.9166666666666666,False,,0,0,1
65de5ddcc637719fe458fc76,0.8404255319148937,0.5428571428571428,7,1.0638297872340425,1.7081603309338187,0.0,0.0,0.0,0.0,42.9,False,0.7916666666666666,False,,1,0,0
57dd186e6598aa0001992616,0.8631578947368421,0.75,4,1.0526315789473684,1.118779381161043,0.0,0.0,0.0,0.0,32.71666666666667,False,0.8125,False,,1,0,0
5da6139c002c29001335b5a2,0.8842105263157894,0.75,5,0.0,1.0737566659316713,0.0,0.0,0.0,0.0,38.53333333333333,False,0.8723404255319149,False,,0,0,4
6787a95f87a6e4a695780b13,0.6774193548387096,0.625,6,1.0752688172043012,1.6148606717944818,0.0,0.0,0.0,0.0,45.78333333333333,False,0.6222222222222222,False,,1,0,1
675c3fae9f1afa4c4207dab3,0.9479166666666666,1.0,4,0.0,0.776158100119801,0.0,0.0,0.0,0.0,27.15,False,0.9166666666666666,False,,0,0,4
6780b105e7a5923128d8457d,0.46875,0.5026178010471204,5,6.25,1.103966947683603,0.0,0.0,0.0,0.0,34.96666666666667,False,0.5,True,Overall accuracy < 60%,0,0,0
678f7fd7097858093f4a9540,0.7333333333333333,0.6956521739130435,11,0.0,1.4336800092950492,0.0,0.0,0.0,0.0,53.333333333333336,False,0.75,True,Identical responses for > 8 consecutive trials,0,0,0
6739ff11a2162a865c36fa64,0.7526881720430108,0.717391304347826,8,1.0752688172043012,1.4383149171114837,0.0,0.0,0.0,0.0,89.93333333333334,False,0.6888888888888889,False,,1,0,2
5f4d3cb5fdda0b2c403fb801,0.776595744680851,0.5319148936170213,7,0.0,1.6080745328492558,0.0,0.0,0.0,0.0,48.78333333333333,False,0.75,False,,0,0,1
677b43188ec54f1186b62411,0.8229166666666666,0.7391304347826086,7,1.0416666666666665,1.1849427138422006,0.0,0.0,0.0,0.0,26.98333333333333,False,0.7291666666666666,False,,1,0,2
5e80b109ca1800791e1ca40c,0.7021276595744681,0.6808510638297872,8,0.0,1.3319534371698607,0.0,0.0,0.0,0.0,36.4,False,0.6739130434782609,False,,0,0,2
6751f6e990f3b3698bf1748b,0.9473684210526315,0.6857142857142857,3,0.0,1.2992697145111605,0.0,0.0,0.0,0.0,46.43333333333333,False,0.9574468085106383,False,,0,0,1
678b749494dd9deb974cb25f,0.4583333333333333,0.6111111111111112,22,88.54166666666666,0.21478212015982817,0.0,0.0,0.0,0.0,36.6,True,0.4583333333333333,True,Overall accuracy < 60%; Identical responses for > 8 consecutive trials; Fast trials (< 200ms) > 10%,0,0,0
6711263a9c4a226969aeb686,0.4895833333333333,0.5192307692307693,41,60.416666666666664,0.3426475175959881,0.0,0.0,0.0,0.0,96.33333333333331,False,0.5,True,Overall accuracy < 60%; Identical responses for > 8 consecutive trials; Fast trials (< 200ms) > 10%,0,0,0
5b8bf5dd7b334200011da4aa,0.90625,0.8333333333333334,7,0.0,1.222202055904072,0.0,0.0,0.0,0.0,29.75,False,0.9166666666666666,False,,0,0,1
6781563ac4093eb7a7433ff3,0.4895833333333333,0.7083333333333334,6,0.0,0.6452687298196884,0.0,0.0,0.0,0.0,47.5,False,0.5,True,Overall accuracy < 60%,0,0,0
6738c218706186b3fe8e8f56,0.723404255319149,0.7083333333333334,5,1.0638297872340425,1.510760130037254,0.0,0.0,0.0,0.0,62.91666666666666,False,0.7391304347826086,False,,1,0,1
67826c0cd5858c9d420da7ff,0.5,0.5,5,0.0,0.8302443449994157,0.0,0.0,0.0,0.0,44.85,False,0.4791666666666667,True,Overall accuracy < 60%,0,0,0
6111ec391b7048bb53089f5d,0.8,0.8181818181818182,6,0.0,1.6139603970071155,0.0,0.0,0.0,0.0,35.25,False,0.7674418604651163,False,,0,0,3
5c2c62542c45d400014a32e6,0.9375,0.8333333333333334,4,0.0,1.0904700111543526,0.0,0.0,0.0,0.0,29.316666666666663,False,0.9166666666666666,False,,0,0,3
6778cbf3f0597689c7b5cb4a,0.6145833333333334,0.5194805194805194,5,0.0,1.3537655788674479,0.0,0.0,0.0,0.0,49.55,False,0.625,False,,0,0,1
677aae4e7390567a435c3c23,0.5625,0.5441176470588235,5,0.0,0.4797321506877653,0.0,0.0,0.0,0.0,51.65,False,0.5625,True,Overall accuracy < 60%,0,0,0
6716dbc5faa8d435d67f0ed7,0.4421052631578947,0.6666666666666666,7,1.0526315789473684,1.2541848547318475,0.0,0.0,0.0,0.0,45.333333333333336,False,0.375,True,Overall accuracy < 60%,0,0,0
67207ddb95109f11e89dcfb8,0.5416666666666666,0.5957446808510638,5,0.0,0.453996458888298,0.0,0.0,0.0,0.0,30.9,False,0.5416666666666666,True,Overall accuracy < 60%,0,0,0
676af7a57cae28cecaf83c68,0.9148936170212766,0.9,9,2.127659574468085,1.6236774041645574,0.0,0.0,0.0,0.0,34.06666666666667,False,0.8723404255319149,True,Identical responses for > 8 consecutive trials,0,0,0
610466e3fb619bdbdf8eb32d,0.6716417910447762,0.6388888888888888,7,0.0,1.190246435157166,0.0,0.0,0.0,0.0,64.48333333333333,False,0.5882352941176471,False,,0,0,2
676d40e2915d059bf7ef62e8,0.5161290322580645,0.5175438596491229,36,0.0,1.5665951833407932,0.0,0.0,0.0,0.0,66.8,False,0.4666666666666667,True,Overall accuracy < 60%; Identical responses for > 8 consecutive trials,0,0,0
67719f52af5175c7f6b1c990,0.8279569892473119,0.6956521739130435,6,1.0752688172043012,1.7525872760575123,0.0,0.0,0.0,0.0,45.4,False,0.7111111111111111,False,,1,0,1
6786d6d81286c8386e009009,0.8829787234042553,0.5588235294117647,7,0.0,1.0050911814707337,0.0,0.0,0.0,0.0,45.833333333333336,False,0.851063829787234,False,,0,0,1
674e978e575eccb8dd86167b,0.6111111111111112,0.7021276595744681,6,0.0,1.5527466936470062,0.0,0.0,0.0,0.0,45.96666666666667,False,0.5333333333333333,False,,0,0,0
5f974c72a0ed8c0f9ce724ea,0.9791666666666666,0.8333333333333334,5,0.0,0.7505765211056684,0.0,0.0,0.0,0.0,28.866666666666667,False,0.9791666666666666,False,,0,0,3
671609ab4a3f2c6c76dfe9d8,0.53125,0.6041666666666666,5,0.0,0.6275928616119466,0.0,0.0,0.0,0.0,61.4,False,0.4166666666666667,True,Overall accuracy < 60%,0,0,0
6699c7aea5e77f24097879b7,0.4583333333333333,0.43333333333333335,10,8.333333333333332,0.4410145827192709,0.0,0.0,0.0,0.0,27.933333333333334,True,0.5208333333333334,True,Overall accuracy < 60%; Identical responses for > 8 consecutive trials; Practice accuracy < 50%,0,0,0
676ef830be06454935800ec3,0.9791666666666666,0.75,5,0.0,0.6076872896446115,0.0,0.0,0.0,0.0,47.61666666666667,False,0.9791666666666666,False,,0,0,3
66d9fc2d2b46f520118ea65f,0.9021739130434783,0.8695652173913043,6,1.0869565217391304,1.6798846165513701,0.0,0.0,0.0,0.0,37.75,False,0.9090909090909091,False,,1,0,1
66b0103854c074757187d029,0.6354166666666666,0.5392670157068062,5,0.0,0.9129129707372718,0.0,0.0,0.0,0.0,75.51666666666667,False,0.5833333333333334,False,,0,0,0
664d46ad7cc1780eecfd0c24,0.9166666666666666,0.7916666666666666,5,0.0,0.7604508900253526,0.0,0.0,0.0,0.0,29.9,False,0.8541666666666666,False,,0,0,0
64143c6c286640f3d1348cf8,0.9473684210526315,0.75,3,0.0,0.8265017328643489,0.0,0.0,0.0,0.0,57.38333333333333,False,0.9574468085106383,False,,0,0,3
67253dbcd4950a2168aa7741,0.8947368421052632,0.6363636363636364,5,0.0,1.1518476969240745,0.0,0.0,0.0,0.0,38.516666666666666,False,0.8958333333333334,False,,0,0,1
6643bef326f3a4026c0ab2b6,0.968421052631579,0.75,5,0.0,1.0255615209275195,0.0,0.0,0.0,0.0,30.466666666666665,False,0.9574468085106383,False,,0,0,2
5eec6fe1a0f1c4000a8103b2,0.9148936170212766,0.6956521739130435,5,0.0,1.3488224304778567,0.0,0.0,0.0,0.0,29.566666666666663,False,0.8913043478260869,False,,0,0,0
66cfb812269143794dc55575,0.6666666666666666,0.8181818181818182,6,0.0,1.4293857777802428,0.0,0.0,0.0,0.0,28.816666666666663,False,0.6666666666666666,False,,0,0,0
6785fc7153cd5fe0e7d2cc0a,0.7083333333333334,0.5625,17,0.0,0.5442740963849134,0.0,0.0,0.0,0.0,23.23333333333333,True,0.5416666666666666,True,Identical responses for > 8 consecutive trials,0,0,0
60641cdc8536a607a60e0612,0.6382978723404256,0.9090909090909091,12,0.0,1.43102948507778,0.0,0.0,0.0,0.0,36.95,False,0.5652173913043478,True,Identical responses for > 8 consecutive trials,0,0,0
655f9f56990f2a2d957b1cad,0.4479166666666667,0.5192307692307693,7,0.0,0.21172910770190673,0.0,0.0,0.0,0.0,78.28333333333333,False,0.4375,True,Overall accuracy < 60%,0,0,0
65f9200b96211e5163eb912e,0.4105263157894737,0.4861111111111111,6,0.0,1.103145735655115,0.0,0.0,0.0,0.0,38.53333333333333,False,0.4583333333333333,True,Overall accuracy < 60%; Practice accuracy < 50%,0,0,0
677d1f4f3c247c1a7a6fb57f,0.8602150537634409,0.9166666666666666,7,0.0,1.3384289335394604,0.0,0.0,0.0,0.0,38.43333333333333,False,0.8695652173913043,False,,0,0,1
67824ed63aa44baedbe5d46f,0.776595744680851,0.5571428571428572,5,0.0,1.3884371118663856,0.0,0.0,0.0,0.0,39.583333333333336,False,0.7446808510638298,False,,0,0,1
6783e8710446ee858344b1b2,0.7604166666666666,0.7142857142857143,5,0.0,0.8980574387522469,0.0,0.0,0.0,0.0,31.716666666666665,False,0.7083333333333334,False,,0,0,0
678e46af9bf54902d3db189f,0.8172043010752689,0.6470588235294118,6,1.0752688172043012,1.4059592384248563,0.0,0.0,0.0,0.0,79.36666666666666,False,0.8043478260869565,False,,1,0,0
60ff8f48909c68ae805ea2ba,0.8736842105263158,0.6521739130434783,6,0.0,1.1289855238097628,0.0,0.0,0.0,0.0,33.416666666666664,False,0.8085106382978723,False,,0,0,2
677bbed2d896aee8efecb51d,0.5157894736842106,0.4008438818565401,6,0.0,0.9619553798113718,0.0,0.0,0.0,0.0,66.43333333333334,True,0.48936170212765956,True,Overall accuracy < 60%; Practice accuracy < 50%,0,0,0
6759fef1b173fb9839ebe137,0.49473684210526314,0.46835443037974683,6,0.0,0.7953683928275441,0.0,0.0,0.0,0.0,46.18333333333333,True,0.44680851063829785,True,Overall accuracy < 60%; Practice accuracy < 50%,0,0,0
655f8b959477c803eb906622,0.7127659574468085,0.5789473684210527,10,1.0638297872340425,1.3757293041685938,0.0,0.0,0.0,0.0,42.11666666666667,False,0.5957446808510638,True,Identical responses for > 8 consecutive trials,0,0,0
667998e5c55fe7def1eb7496,0.9270833333333334,0.75,4,0.0,0.7866936268102188,0.0,0.0,0.0,0.0,24.25,False,0.9166666666666666,False,,0,0,4
677f7658861507001fe69579,0.875,0.8333333333333334,3,0.0,1.2886697854611657,0.0,0.0,0.0,0.0,29.2,False,0.875,False,,0,0,2
673d1231929c7a0a6138a5c1,0.8297872340425532,0.8181818181818182,6,0.0,1.358863856742906,0.0,0.0,0.0,0.0,29.98333333333333,False,0.6739130434782609,False,,0,0,1
67860774acf7592ed65861bb,0.49473684210526314,0.538961038961039,16,0.0,1.2360943817996606,0.0,0.0,0.0,0.0,59.583333333333336,True,0.5208333333333334,True,Overall accuracy < 60%; Identical responses for > 8 consecutive trials,0,0,0
67628bf652610e40de8a09e8,0.5263157894736842,0.5467980295566502,31,0.0,1.0239482099099677,0.0,0.0,0.0,0.0,46.583333333333336,False,0.5319148936170213,True,Overall accuracy < 60%; Identical responses for > 8 consecutive trials,0,0,0
66c8abe49537b182dcbd2049,0.8645833333333334,0.75,5,0.0,0.8009680002369063,0.0,0.0,0.0,0.0,30.35,False,0.7708333333333334,False,,0,0,3
6752092030f55f6f6a50df9e,0.5729166666666666,0.49528301886792453,12,32.29166666666667,0.8837453239857433,0.0,0.0,0.0,0.0,78.06666666666666,False,0.5416666666666666,True,Overall accuracy < 60%; Identical responses for > 8 consecutive trials; Fast trials (< 200ms) > 10%; Practice accuracy < 50%,0,0,0
6033fd8bc8659800086d87b0,0.96875,0.8333333333333334,4,0.0,0.9380172807149963,0.0,0.0,0.0,0.0,31.433333333333334,False,0.9791666666666666,False,,0,0,1
66c608b7c916342fbca4d075,0.5729166666666666,0.4576271186440678,10,0.0,0.5835985762882001,0.0,0.0,0.0,0.0,52.68333333333333,False,0.6041666666666666,True,Overall accuracy < 60%; Identical responses for > 8 consecutive trials; Practice accuracy < 50%,0,0,0
6757688470f9e929a8ea7d90,0.6170212765957447,0.5833333333333334,4,0.0,1.42645848560048,0.0,0.0,0.0,0.0,52.03333333333333,False,0.5531914893617021,False,,0,0,0
5d96eeed1998fb00177f6b71,0.5520833333333334,0.4859154929577465,3,0.0,0.14219249849128113,0.0,0.0,0.0,0.0,84.45,True,0.5208333333333334,True,Overall accuracy < 60%; Practice accuracy < 50%,0,0,0
5e375b7e76397a6f27f9547f,0.8854166666666666,0.8181818181818182,5,0.0,0.9207203329292225,0.0,0.0,0.0,0.0,25.116666666666667,False,0.8333333333333334,False,,0,0,4
6631185d17f78b1877ba88cb,0.78125,0.5862068965517241,6,0.0,1.1241284212429965,0.0,0.0,0.0,0.0,36.23333333333333,False,0.75,False,,0,0,1
678dfec50cc874af0b76ab04,0.7684210526315789,0.5955056179775281,5,1.0526315789473684,1.78452019937506,0.0,0.0,0.0,0.0,85.48333333333333,False,0.7021276595744681,False,,1,0,0
67841f5e6071ec5527f9c27f,0.5,0.75,9,0.0,0.4412634977993666,0.0,0.0,0.0,0.0,30.55,False,0.5416666666666666,True,Overall accuracy < 60%; Identical responses for > 8 consecutive trials,0,0,0
673a70491f1992a774b72caa,0.5384615384615384,0.5978260869565217,8,0.0,1.4248525280579267,0.0,0.0,0.0,0.0,84.78333333333333,False,0.5111111111111111,True,Overall accuracy < 60%,0,0,0
66049315b5c325fdaafea8fa,0.9166666666666666,0.8260869565217391,7,0.0,0.9456091036140247,0.0,0.0,0.0,0.0,40.65,False,0.875,False,,0,0,3
67693470121578a6dff417d2,0.8105263157894737,0.7428571428571429,6,0.0,1.5306745645096251,0.0,0.0,0.0,0.0,35.31666666666667,False,0.75,False,,0,0,0
677e333ee5769779d2fb960f,0.49473684210526314,0.5362318840579711,38,0.0,1.0541044525909207,0.0,0.0,0.0,0.0,47.516666666666666,False,0.5,True,Overall accuracy < 60%; Identical responses for > 8 consecutive trials,0,0,0
65d5d1d59bfc5f7fcbbd742d,0.8541666666666666,0.5263157894736842,4,0.0,1.1195482864925377,0.0,0.0,0.0,0.0,32.666666666666664,False,0.75,False,,0,0,1
565a3d24c51d430005875042,0.8064516129032258,0.6571428571428571,4,0.0,1.4389117717032351,0.0,0.0,0.0,0.0,37.66666666666666,False,0.7333333333333333,False,,0,0,2
67352f08f3ab886418574a6a,0.8958333333333334,0.7222222222222222,7,0.0,1.2337483823444308,0.0,0.0,0.0,0.0,26.08333333333333,False,0.8125,False,,0,0,1
675aaec58dfc729c338a52eb,0.9368421052631579,0.75,4,0.0,1.1477545765644483,0.0,0.0,0.0,0.0,29.866666666666667,False,0.8936170212765957,False,,0,0,4
671d2c608d56f868207f9e9e,0.4946236559139785,0.5833333333333334,8,0.0,1.1042713795428274,0.0,0.0,0.0,0.0,47.7,False,0.45652173913043476,True,Overall accuracy < 60%,0,0,0
5dd671942b033b5ec8bc97b4,0.9166666666666666,0.75,6,0.0,0.7164014145243267,0.0,0.0,0.0,0.0,49.833333333333336,False,0.875,False,,0,0,1
6759fd05e4ade779f4ee4689,0.5,0.4722222222222222,8,1.0416666666666665,0.8427711368070738,0.0,0.0,0.0,0.0,41.96666666666667,False,0.4791666666666667,True,Overall accuracy < 60%; Practice accuracy < 50%,0,0,0
676d800c5499f924389756b5,0.9583333333333334,0.9090909090909091,4,0.0,0.9324281364852895,0.0,0.0,0.0,0.0,31.466666666666665,False,0.9583333333333334,False,,0,0,2
583d5dd49c5f2a0001b85f40,0.9263157894736842,0.75,6,0.0,0.9528295542295138,0.0,0.0,0.0,0.0,33.733333333333334,False,0.9148936170212766,False,,0,0,3
6764736f0048fc3595fbb944,0.4842105263157895,0.5662650602409639,7,0.0,0.7585254208532679,0.0,0.0,0.0,0.0,62.35,False,0.5319148936170213,True,Overall accuracy < 60%,0,0,0
674b47940b75eb06298f0c67,0.9052631578947369,0.8181818181818182,6,0.0,1.430995321110951,0.0,0.0,0.0,0.0,75.9,False,0.8723404255319149,False,,0,0,1
5f1273be29b0711c3cff250f,0.8315789473684211,0.6,5,0.0,1.494224511479278,0.0,0.0,0.0,0.0,32.8,False,0.7872340425531915,False,,0,0,2
5d6513f46f5284000118ef1d,0.5368421052631579,0.6666666666666666,7,0.0,1.599395832517713,0.0,0.0,0.0,0.0,40.35,False,0.40425531914893614,True,Overall accuracy < 60%,0,0,0
55a9f6a1fdf99b2d81b5295f,0.8947368421052632,1.0,7,0.0,1.4018906276578404,0.0,0.0,0.0,0.0,80.63333333333334,False,0.851063829787234,False,,0,0,2
5dac4dad5e53cc001499f1f6,0.8854166666666666,0.9090909090909091,6,0.0,0.7460366136039969,0.0,0.0,0.0,0.0,37.23333333333333,False,0.8125,False,,0,0,1
66972752027327f711a5e612,0.8854166666666666,1.0,4,0.0,0.7654049030936663,0.0,0.0,0.0,0.0,33.05,False,0.8333333333333334,False,,0,0,3
6743c8da977b0d274dad1fc2,0.6875,0.44871794871794873,8,0.0,1.3870905874106112,0.0,0.0,0.0,0.0,66.7,False,0.5833333333333334,True,Practice accuracy < 50%,0,0,0
677f26f141f0ce49707accc6,0.46875,0.7391304347826086,12,0.0,0.753034712608682,0.0,0.0,0.0,0.0,63.4,False,0.4583333333333333,True,Overall accuracy < 60%; Identical responses for > 8 consecutive trials,0,0,0
67329e974d0c9d4221e4c4ac,0.6210526315789474,0.6285714285714286,4,0.0,1.3591026896576706,0.0,0.0,0.0,0.0,37.516666666666666,False,0.5833333333333334,False,,0,0,0
672a3b3af4fe3ca8478cd6c6,0.9052631578947369,0.6571428571428571,5,0.0,1.526870588945356,0.0,0.0,0.0,0.0,34.13333333333333,False,0.8723404255319149,False,,0,0,2
62786f21e2cc1d6adeea0a79,0.8958333333333334,0.6944444444444444,5,0.0,0.8290537768247151,0.0,0.0,0.0,0.0,29.366666666666667,False,0.8541666666666666,False,,0,0,3
6170cb31c3656859cca7cc57,0.5208333333333334,0.5578947368421052,11,0.0,0.5385616646743419,0.0,0.0,0.0,0.0,31.183333333333334,False,0.5416666666666666,True,Overall accuracy < 60%; Identical responses for > 8 consecutive trials,0,0,0
6784b7b57a26bfddbafe40e6,0.4842105263157895,0.4721030042918455,7,0.0,1.408710362973184,0.0,0.0,0.0,0.0,76.46666666666667,True,0.5416666666666666,True,Overall accuracy < 60%; Practice accuracy < 50%,0,0,0
67863d420c27f3b6e5f57073,0.8,0.7222222222222222,7,0.0,0.9657341770145526,0.0,0.0,0.0,0.0,32.016666666666666,False,0.75,False,,0,0,0
5c0245f0a9d1ef00011816ea,0.9479166666666666,0.8181818181818182,6,0.0,1.3280068959871683,0.0,0.0,0.0,0.0,29.683333333333334,False,0.9375,False,,0,0,1
66eddeb07ae1f7510780b109,0.7395833333333334,0.6571428571428571,9,0.0,1.340599109266329,0.0,0.0,0.0,0.0,37.48333333333333,False,0.6458333333333334,True,Identical responses for > 8 consecutive trials,0,0,0
66f198a897fe47706e8cdfd2,0.8709677419354839,0.782608695652174,5,0.0,1.5444697168152635,0.0,0.0,0.0,0.0,31.866666666666667,False,0.8085106382978723,False,,0,0,0
668f41cc549b163c5d45534e,0.875,0.75,5,0.0,0.7865438020364345,0.0,0.0,0.0,0.0,23.566666666666663,False,0.8333333333333334,False,,0,0,2
6711c745bcc0626c2de36d07,0.7684210526315789,0.5492957746478874,4,0.0,0.9312061428475672,0.0,0.0,0.0,0.0,30.566666666666663,False,0.6875,False,,0,0,2
6701b597d540eba733ee58c9,0.5520833333333334,0.55,7,48.95833333333333,0.4674053681453098,0.0,0.0,0.0,0.0,26.133333333333333,True,0.5833333333333334,True,Overall accuracy < 60%; Fast trials (< 200ms) > 10%,0,0,0
674d61ec8e80ca5159d6aa56,0.5833333333333334,0.5586592178770949,4,0.0,0.4007379863036029,0.0,0.0,0.0,0.0,45.65,True,0.5416666666666666,True,Overall accuracy < 60%,0,0,0
6740484e188a64793529ee77,0.875,0.7391304347826086,5,0.0,1.1495111569229552,0.0,0.0,0.0,0.0,40.833333333333336,False,0.8958333333333334,False,,0,0,2
6761f8be0534cd92e822e611,0.28125,0.9166666666666666,6,0.0,1.3433382219339893,0.0,0.0,0.0,0.0,30.6,False,0.3125,True,Overall accuracy < 60%,0,0,0
6761312f87e4c57c3259eb11,0.5894736842105263,0.5473684210526316,6,0.0,1.596834842740451,0.0,0.0,0.0,0.0,37.43333333333333,False,0.6382978723404256,True,Overall accuracy < 60%,0,0,0
66a6bbb40b48d0e4f326767e,0.6145833333333334,0.6086956521739131,11,0.0,0.8380672564858028,0.0,0.0,0.0,0.0,48.73333333333333,False,0.5208333333333334,True,Identical responses for > 8 consecutive trials,0,0,0
62e029ff528ea30b4508eaf5,0.9166666666666666,0.75,6,0.0,0.8214706113945089,0.0,0.0,0.0,0.0,29.366666666666667,False,0.9375,False,,0,0,1
67896d4bcf7daeb9b9c6945e,0.4791666666666667,0.6666666666666666,7,0.0,0.7107499644710608,0.0,0.0,0.0,0.0,42.95,False,0.375,True,Overall accuracy < 60%,0,0,0
671c5ad0eb30c87c11b22ec4,0.8210526315789474,0.75,5,0.0,0.9710386669224117,0.0,0.0,0.0,0.0,35.05,False,0.7916666666666666,False,,0,0,0
649d257f5e8bfe6ee264e160,0.53125,0.46987951807228917,6,0.0,0.7180003077963226,0.0,0.0,0.0,0.0,102.95,False,0.5208333333333334,True,Overall accuracy < 60%; Practice accuracy < 50%,0,0,0
678a318061025ebe627384b6,0.5052631578947369,0.4868421052631579,4,0.0,0.9404525492761928,0.0,0.0,0.0,0.0,84.3,False,0.48936170212765956,True,Overall accuracy < 60%; Practice accuracy < 50%,0,0,0
6630ec1ebe18d48a3cecb54e,0.8958333333333334,0.75,6,0.0,1.312561859940724,0.0,0.0,0.0,0.0,29.966666666666665,False,0.875,False,,0,0,1
6710e7d85362bdd95a82bcbf,0.40625,0.5149700598802395,7,0.0,0.7866784364058297,0.0,0.0,0.0,0.0,78.01666666666667,False,0.5416666666666666,True,Overall accuracy < 60%,0,0,0
5a6e8532e6cc4a0001b6d728,0.625,0.5531914893617021,10,0.0,1.1491073788245723,0.0,0.0,0.0,0.0,41.06666666666667,False,0.4583333333333333,True,Identical responses for > 8 consecutive trials,0,0,0
66c4a2414f979ae2a78a8adc,0.967741935483871,0.5833333333333334,3,1.0752688172043012,1.4046103757908583,0.0,0.0,0.0,0.0,38.15,False,0.9787234042553191,False,,1,0,1
63e6378e04ade071ebf9ff9c,0.6382978723404256,0.5454545454545454,8,36.17021276595745,0.801894155913239,0.0,0.0,0.0,0.0,36.45,False,0.5833333333333334,True,Fast trials (< 200ms) > 10%,0,0,0
5a6eac90d5d4cb0001d6815a,0.9578947368421052,0.9166666666666666,4,1.0526315789473684,1.3988909902299294,0.0,0.0,0.0,0.0,29.666666666666668,False,0.9361702127659575,False,,1,0,1
674e0771f3216542d0539c7b,0.9368421052631579,0.75,5,0.0,1.278264855508696,0.0,0.0,0.0,0.0,28.683333333333334,False,0.9148936170212766,False,,0,0,3
67759a26b7a5424ec5d0c0a1,0.925531914893617,0.8181818181818182,3,1.0638297872340425,1.4158619903453318,0.0,0.0,0.0,0.0,36.63333333333333,False,0.9148936170212766,False,,1,0,0
66a508e29deb15f57d4458f1,0.9578947368421052,1.0,4,0.0,1.1765238018055588,0.0,0.0,0.0,0.0,39.7,False,0.9574468085106383,False,,0,0,5
674ca6e73e98a96de2cda112,0.5208333333333334,0.459915611814346,6,51.041666666666664,0.6117394245424057,0.0,0.0,0.0,0.0,34.35,False,0.5625,True,Overall accuracy < 60%; Fast trials (< 200ms) > 10%; Practice accuracy < 50%,0,0,0
663a80393a72dac091c817b5,0.8645833333333334,0.7083333333333334,7,0.0,1.1421546501117656,0.0,0.0,0.0,0.0,27.066666666666663,False,0.8333333333333334,False,,0,0,2
56c15833eb5b22000d5babba,0.968421052631579,0.9166666666666666,6,0.0,1.189273691257267,0.0,0.0,0.0,0.0,38.25,False,0.9791666666666666,False,,0,0,3
672b60eb227e2b01fd1f88b5,0.5416666666666666,0.75,14,0.0,0.6909815961247551,0.0,0.0,0.0,0.0,36.7,False,0.5,True,Overall accuracy < 60%; Identical responses for > 8 consecutive trials,0,0,0
58d1f1038084450001956fdc,0.96875,1.0,3,0.0,1.3198674968965767,0.0,0.0,0.0,0.0,22.016666666666666,False,0.9791666666666666,False,,0,0,2
5eb342dff78ab11407daf144,0.9052631578947369,0.8333333333333334,5,0.0,1.5214817278308603,0.0,0.0,0.0,0.0,26.383333333333333,False,0.851063829787234,False,,0,0,1
67880bb68accd49a72b45565,0.5625,0.7142857142857143,8,56.25,0.7193355787650108,0.0,0.0,0.0,0.0,27.0,False,0.5833333333333334,True,Overall accuracy < 60%; Fast trials (< 200ms) > 10%,0,0,0
678c417ed431a331d3f547ec,0.5531914893617021,0.75,10,0.0,1.224021790447863,0.0,0.0,0.0,0.0,26.2,False,0.45652173913043476,True,Overall accuracy < 60%; Identical responses for > 8 consecutive trials,0,0,0
669b00d76af70db9da1b0301,0.9680851063829787,0.9166666666666666,3,0.0,1.120166760992281,0.0,0.0,0.0,0.0,62.833333333333336,False,0.9361702127659575,False,,0,0,2
669284eabea5b8c9655927da,0.4375,0.48936170212765956,29,0.0,0.8158315683582148,0.0,0.0,0.0,0.0,58.78333333333333,False,0.3333333333333333,True,Overall accuracy < 60%; Identical responses for > 8 consecutive trials; Practice accuracy < 50%,0,0,0
66439d339e8b25efa8cb4b9a,0.8526315789473684,0.5254237288135594,5,0.0,1.2259611356237594,0.0,0.0,0.0,0.0,45.016666666666666,False,0.7872340425531915,False,,0,0,0
61140d2c5d85c524932a2c59,0.7395833333333334,0.7391304347826086,5,0.0,0.6136364775884766,0.0,0.0,0.0,0.0,29.78333333333333,False,0.75,False,,0,0,0
663ec602f5dc7af6ccc1c2d0,0.9270833333333334,0.6521739130434783,5,0.0,1.056230997055261,0.0,0.0,0.0,0.0,41.45,False,0.9166666666666666,False,,0,0,1
66ace0fa42d9a6710036025c,0.8645833333333334,0.6779661016949152,3,0.0,1.063422382278313,0.0,0.0,0.0,0.0,28.45,False,0.8125,False,,0,0,3
6779f13fe54a982becaa1b3f,0.956989247311828,1.0,4,2.1505376344086025,1.6328971138666557,0.0,0.0,0.0,0.0,51.81666666666667,False,0.9555555555555556,False,,2,0,0
671d48bbee99c1439ae0d0de,0.5368421052631579,0.5,7,0.0,0.9794287194901681,0.0,0.0,0.0,0.0,65.83333333333333,False,0.48936170212765956,True,Overall accuracy < 60%,0,0,0
678dbad423480901e47ad481,0.96875,0.8333333333333334,4,0.0,1.029592399566748,0.0,0.0,0.0,0.0,28.65,False,0.9583333333333334,False,,0,0,3
675402ab00652943d80d7ddb,0.65625,0.5481171548117155,3,29.166666666666668,0.30241835620717966,0.0,0.0,0.0,0.0,50.46666666666667,True,0.7291666666666666,True,Fast trials (< 200ms) > 10%,0,0,0
662848c40caa342b28493265,0.6105263157894737,0.5763888888888888,6,0.0,1.2276132773763053,0.0,0.0,0.0,0.0,42.333333333333336,False,0.6170212765957447,False,,0,0,4
678c0db9c6a63a1de276a649,0.8947368421052632,0.7058823529411765,7,1.0526315789473684,1.6136008309025383,0.0,0.0,0.0,0.0,34.35,False,0.851063829787234,False,,1,0,2
6643d97ef7bef1480ec1166b,0.6210526315789474,0.6585365853658537,6,0.0,1.4686879346278394,0.0,0.0,0.0,0.0,39.0,False,0.6041666666666666,False,,0,0,1
6733c03807f9f957e2eb1382,0.9473684210526315,1.0,4,0.0,0.9542693801808417,0.0,0.0,0.0,0.0,30.28333333333333,False,0.9574468085106383,False,,0,0,2
678a5c44e1295faaebfc8ee4,0.5157894736842106,0.5,5,0.0,1.1201203001381748,0.0,0.0,0.0,0.0,45.53333333333333,False,0.6595744680851063,True,Overall accuracy < 60%,0,0,0
67228eb9f3f694a42b636b7f,0.8421052631578947,0.75,8,0.0,1.193349456357995,0.0,0.0,0.0,0.0,24.05,False,0.7708333333333334,False,,0,0,3
60d3d517873ac00f2ed811e5,0.9789473684210527,0.9166666666666666,3,0.0,0.9459254088242639,0.0,0.0,0.0,0.0,28.23333333333333,False,0.9787234042553191,False,,0,0,3
66e28103f28d6e15a3f4f1f0,0.631578947368421,0.524390243902439,7,0.0,1.0807520647287487,0.0,0.0,0.0,0.0,42.21666666666667,False,0.5319148936170213,False,,0,0,3
67808d0260180c6133619b2b,0.8210526315789474,0.6956521739130435,5,0.0,1.3281735390818223,0.0,0.0,0.0,0.0,28.53333333333333,False,0.8297872340425532,False,,0,0,1
6547bf8012d4702680d55663,0.8333333333333334,0.5833333333333334,8,0.0,1.245276976619621,0.0,0.0,0.0,0.0,35.333333333333336,False,0.75,False,,0,0,4
6742ecbc50ae979ed5099784,0.8229166666666666,0.647887323943662,5,0.0,1.3107467363595429,0.0,0.0,0.0,0.0,39.65,False,0.8125,False,,0,0,2
6787c530d8f7650e446d17a1,0.4583333333333333,0.4666666666666667,4,0.0,0.9107102406672171,0.0,0.0,0.0,0.0,65.41666666666667,True,0.5625,True,Overall accuracy < 60%; Practice accuracy < 50%,0,0,0
610b06f1534fdc7ce455d168,0.8297872340425532,0.75,8,0.0,1.0930034915149938,0.0,0.0,0.0,0.0,32.86666666666667,False,0.7608695652173914,False,,0,0,3
67196116a2212bed3b93f4dc,0.4791666666666667,0.401673640167364,13,0.0,0.32247182757234916,0.0,0.0,0.0,0.0,58.68333333333333,True,0.5625,True,Overall accuracy < 60%; Identical responses for > 8 consecutive trials; Practice accuracy < 50%,0,0,0
673283141ee7ec9141e8bcf4,0.5416666666666666,0.75,10,1.0416666666666665,0.22188358631767466,0.0,0.0,0.0,0.0,21.23333333333333,True,0.5416666666666666,True,Overall accuracy < 60%; Identical responses for > 8 consecutive trials,0,0,0
61216580798476e2db75fc79,0.9583333333333334,0.7272727272727273,4,0.0,1.341128163111323,0.0,0.0,0.0,0.0,28.33333333333333,False,0.9166666666666666,False,,0,0,3
6786e77f621a9c066c534e78,0.4791666666666667,0.6111111111111112,5,0.0,0.7916685188574825,0.0,0.0,0.0,0.0,29.95,False,0.4583333333333333,True,Overall accuracy < 60%,0,0,0
66733b0613db805ab4f05114,0.7708333333333334,1.0,8,0.0,1.0933237104605675,0.0,0.0,0.0,0.0,36.78333333333333,False,0.6458333333333334,False,,0,0,4
674ba6a23248254461461b54,0.6354166666666666,0.6666666666666666,5,0.0,0.9014081714233414,0.0,0.0,0.0,0.0,29.28333333333333,False,0.6458333333333334,False,,0,0,3
6761934aa62aae0c93863233,0.8125,1.0,4,4.166666666666666,1.343374829417093,0.0,0.0,0.0,0.0,30.78333333333333,False,0.7291666666666666,False,,4,0,0
668ddafedbce64d6094e759e,0.8736842105263158,0.6382978723404256,5,1.0526315789473684,0.9388818946615065,0.0,0.0,0.0,0.0,31.08333333333333,False,0.8125,False,,1,0,1
678ac1267cd2b3ce8d1fbf69,0.8541666666666666,0.75,6,0.0,1.2984194336714718,0.0,0.0,0.0,0.0,31.516666666666666,False,0.8125,False,,0,0,3
665f97db56096b743c2332b1,0.9270833333333334,0.8181818181818182,4,0.0,1.417149377391462,0.0,0.0,0.0,0.0,29.83333333333333,False,0.875,False,,0,0,2
674dc32400f538862eb27f89,0.71875,0.46564885496183206,6,0.0,0.8669612014224914,0.0,0.0,0.0,0.0,50.71666666666667,False,0.6666666666666666,True,Practice accuracy < 50%,0,0,0
6734c8a6c51b8aee49adbd1b,0.6179775280898876,0.6451612903225806,17,0.0,1.5892986525964985,0.0,0.0,0.0,0.0,60.36666666666667,False,0.4444444444444444,True,Identical responses for > 8 consecutive trials,0,0,0
5efe44bebdee09152fe08acc,0.9166666666666666,0.9166666666666666,5,0.0,1.046283372049462,0.0,0.0,0.0,0.0,26.25,False,0.8958333333333334,False,,0,0,2
676d592187581f23f60331bb,0.5894736842105263,0.527027027027027,5,0.0,1.6464358473638996,0.0,0.0,0.0,0.0,96.18333333333334,True,0.5957446808510638,True,Overall accuracy < 60%,0,0,0
61052deed380657fcbe37682,0.8854166666666666,0.8181818181818182,7,0.0,0.9914107412557083,0.0,0.0,0.0,0.0,74.6,False,0.8541666666666666,False,,0,0,2
66dd9c5b1c02410a87c068e5,0.8829787234042553,0.75,5,0.0,1.5289756332314643,0.0,0.0,0.0,0.0,40.15,False,0.8478260869565217,False,,0,0,1
677a8ed897bc0e0f12d23e86,0.5473684210526316,0.5949367088607594,12,1.0526315789473684,1.5001942816362073,0.0,0.0,0.0,0.0,47.833333333333336,False,0.48936170212765956,True,Overall accuracy < 60%; Identical responses for > 8 consecutive trials,0,0,0
6740f034985ba328ea9bacbf,0.48936170212765956,0.5043478260869565,9,0.0,1.4628747804232436,0.0,0.0,0.0,0.0,57.96666666666667,False,0.5434782608695652,True,Overall accuracy < 60%; Identical responses for > 8 consecutive trials,0,0,0
6766dee165ff1cc0f8decea0,0.9157894736842105,0.625,6,0.0,1.3747811423884768,0.0,0.0,0.0,0.0,38.91666666666666,False,0.8723404255319149,False,,0,0,1
669be65b7f0c1a71305969d1,0.5416666666666666,0.5555555555555556,7,0.0,0.6966358334497816,0.0,0.0,0.0,0.0,50.36666666666667,True,0.5625,True,Overall accuracy < 60%,0,0,0
5f4539788c48690d1f71bfcc,0.8541666666666666,0.6521739130434783,7,0.0,0.9777532584020313,0.0,0.0,0.0,0.0,44.86666666666667,False,0.8333333333333334,False,,0,0,0
677412c094eeb8f1992fc3ae,0.4895833333333333,0.625,6,0.0,1.0464196380050557,0.0,0.0,0.0,0.0,34.15,False,0.4166666666666667,True,Overall accuracy < 60%,0,0,0
6647e8618c77f7b938865d25,0.75,0.6944444444444444,4,0.0,1.1664931395091571,0.0,0.0,0.0,0.0,33.06666666666667,False,0.6666666666666666,False,,0,0,0
5630b79b733ea00011164946,0.8333333333333334,0.6956521739130435,7,0.0,0.9198566355682299,0.0,0.0,0.0,0.0,31.03333333333333,False,0.6875,False,,0,0,1
615b01ee4cd1755b6144e0a4,0.47368421052631576,0.6666666666666666,5,0.0,0.9707458116756091,0.0,0.0,0.0,0.0,45.333333333333336,True,0.3958333333333333,True,Overall accuracy < 60%,0,0,0
671983e8022d66fd0242265b,0.9270833333333334,0.7391304347826086,5,0.0,1.1088509094391523,0.0,0.0,0.0,0.0,26.566666666666663,False,0.9375,False,,0,0,3
65a4598a91a3f0e75374a8c4,0.6145833333333334,0.7083333333333334,8,5.208333333333334,1.0245225883800109,0.0,0.0,0.0,0.0,54.833333333333336,False,0.5625,False,,5,0,4
6738acfff83934e21342c109,0.53125,0.6956521739130435,5,15.625,0.6881363162262473,0.0,0.0,0.0,0.0,30.633333333333333,False,0.5833333333333334,True,Overall accuracy < 60%; Fast trials (< 200ms) > 10%,0,0,0
6786177b26851e38285d94a1,0.8020833333333334,0.5254237288135594,5,0.0,1.4403600946677895,0.0,0.0,0.0,0.0,32.583333333333336,False,0.75,False,,0,0,2
670d6526115bb30df10ebd72,0.5824175824175825,0.4817073170731707,11,3.296703296703297,1.5796712272828326,0.0,0.0,0.0,0.0,95.15,False,0.6222222222222222,True,Overall accuracy < 60%; Identical responses for > 8 consecutive trials; Practice accuracy < 50%,0,0,0
678755cc09f64198c984b217,0.46875,0.5619047619047619,8,0.0,0.7373960619443616,0.0,0.0,0.0,0.0,31.48333333333333,True,0.5416666666666666,True,Overall accuracy < 60%,0,0,0
673d814ffa7de7d961e6bc53,0.8421052631578947,0.7391304347826086,5,0.0,1.4694442783455162,0.0,0.0,0.0,0.0,27.166666666666668,False,0.75,False,,0,0,1
678b3480eed43ba29dc48ed5,0.8,1.0,7,0.0,1.7059501474135303,0.0,0.0,0.0,0.0,25.3,False,0.6170212765957447,False,,0,0,0
5ac5260dfa3b4e0001736dd3,0.6559139784946236,0.4791666666666667,7,0.0,1.1798743223072214,0.0,0.0,0.0,0.0,36.1,False,0.6,True,Practice accuracy < 50%,0,0,0
62fb84322433c8d7e890a145,0.7916666666666666,0.6666666666666666,7,0.0,0.7064851991099343,0.0,0.0,0.0,0.0,29.716666666666665,False,0.75,False,,0,0,0
666dd3d9e53e0ff59d7cc164,0.4791666666666667,0.5069767441860465,5,0.0,0.44793242872185296,0.0,0.0,0.0,0.0,51.81666666666667,False,0.4791666666666667,True,Overall accuracy < 60%,0,0,0
5ec0260375bf15077a00e645,0.875,0.9090909090909091,6,0.0,0.9845812593566444,0.0,0.0,0.0,0.0,32.88333333333333,False,0.8333333333333334,False,,0,0,1
671050c226ff82aa6081d587,0.7303370786516854,0.5344827586206896,5,2.247191011235955,1.9317783756457052,0.0,0.0,0.0,0.0,37.91666666666666,False,0.5909090909090909,False,,2,0,1
