PROLIFIC_PID,TaskOrder,trial_type,angular_disparity,stimulus_type,condition,MRT_response_key,MRT_correct,MRT_rt,trial_excluded,trial_exclusion_reason
5cd063ce657e300016f6c95a,1.0,,,,,,,,False,
5cd063ce657e300016f6c95a,,,,,,,,,False,
5cd063ce657e300016f6c95a,,,,,,,,,False,
5cd063ce657e300016f6c95a,,,,,,,,,False,
5cd063ce657e300016f6c95a,,,,,,,,,False,
5cd063ce657e300016f6c95a,,,,,,,,,False,
5cd063ce657e300016f6c95a,,,,,,,,,False,
5cd063ce657e300016f6c95a,,,,,,,,,False,
5cd063ce657e300016f6c95a,,,,,,,,,False,
5cd063ce657e300016f6c95a,,,,,,,,,False,
5cd063ce657e300016f6c95a,,,,,,,,,False,
5cd063ce657e300016f6c95a,,,,,,,,,False,
5cd063ce657e300016f6c95a,,,,,,,,,False,
5cd063ce657e300016f6c95a,,,,,,,,,False,
5cd063ce657e300016f6c95a,,,,,,,,,False,
5cd063ce657e300016f6c95a,,,,,,,,,False,
5cd063ce657e300016f6c95a,,,,,,,,,False,
5cd063ce657e300016f6c95a,,,,,,,,,False,
5cd063ce657e300016f6c95a,,,,,,,,,False,
5cd063ce657e300016f6c95a,,,,,,,,,False,
5cd063ce657e300016f6c95a,,,,,,,,,False,
5cd063ce657e300016f6c95a,,,,,,,,,False,
5cd063ce657e300016f6c95a,,,,,,,,,False,
5cd063ce657e300016f6c95a,,,,,,,,,False,
5cd063ce657e300016f6c95a,,,,,,,,,False,
5cd063ce657e300016f6c95a,,,,,,,,,False,
5cd063ce657e300016f6c95a,,,,,,,,,False,
5cd063ce657e300016f6c95a,,,,,,,,,False,
5cd063ce657e300016f6c95a,,,,,,,,,False,
5cd063ce657e300016f6c95a,,,,,,,,,False,
5cd063ce657e300016f6c95a,,,,,,,,,False,
5cd063ce657e300016f6c95a,,,,,,,,,False,
5cd063ce657e300016f6c95a,,,,,,,,,False,
5cd063ce657e300016f6c95a,,,,,,,,,False,
5cd063ce657e300016f6c95a,,,,,,,,,False,
5cd063ce657e300016f6c95a,,,,,,,,,False,
5cd063ce657e300016f6c95a,,,,,,,,,False,
5cd063ce657e300016f6c95a,,,,,,,,,False,
5cd063ce657e300016f6c95a,,,,,,,,,False,
5cd063ce657e300016f6c95a,,,,,,,,,False,
5cd063ce657e300016f6c95a,,,,,,,,,False,
5cd063ce657e300016f6c95a,,,,,,,,,False,
5cd063ce657e300016f6c95a,,,,,,,,,False,
5cd063ce657e300016f6c95a,,,,,,,,,False,
5cd063ce657e300016f6c95a,,,,,,,,,False,
5cd063ce657e300016f6c95a,,,,,,,,,False,
5cd063ce657e300016f6c95a,,,,,,,,,False,
5cd063ce657e300016f6c95a,,,,,,,,,False,
5cd063ce657e300016f6c95a,,,,,,,,,False,
5cd063ce657e300016f6c95a,,,,,,,,,False,
5cd063ce657e300016f6c95a,,,,,,,,,False,
5cd063ce657e300016f6c95a,,,,,,,,,False,
5cd063ce657e300016f6c95a,,,,,,,,,False,
5cd063ce657e300016f6c95a,,,,,,,,,False,
5cd063ce657e300016f6c95a,,,,,,,,,False,
5cd063ce657e300016f6c95a,,,,,,,,,False,
5cd063ce657e300016f6c95a,,,,,,,,,False,
5cd063ce657e300016f6c95a,,,,,,,,,False,
5cd063ce657e300016f6c95a,,,,,,,,,False,
5cd063ce657e300016f6c95a,,,,,,,,,False,
5cd063ce657e300016f6c95a,,,,,,,,,False,
5cd063ce657e300016f6c95a,,,,,,,,,False,
5cd063ce657e300016f6c95a,,,,,,,,,False,
5cd063ce657e300016f6c95a,,,,,,,,,False,
5cd063ce657e300016f6c95a,,,,,,,,,False,
5cd063ce657e300016f6c95a,,,,,,,,,False,
5cd063ce657e300016f6c95a,,,,,,,,,False,
5cd063ce657e300016f6c95a,,,,,,,,,False,
5cd063ce657e300016f6c95a,,,,,,,,,False,
5cd063ce657e300016f6c95a,,,,,,,,,False,
5cd063ce657e300016f6c95a,,,,,,,,,False,
5cd063ce657e300016f6c95a,,,,,,,,,False,
5cd063ce657e300016f6c95a,,,,,,,,,False,
5cd063ce657e300016f6c95a,,,,,,,,,False,
5cd063ce657e300016f6c95a,,,,,,,,,False,
5cd063ce657e300016f6c95a,,,,,,,,,False,
5cd063ce657e300016f6c95a,,,,,,,,,False,
5cd063ce657e300016f6c95a,,,,,,,,,False,
5cd063ce657e300016f6c95a,,,,,,,,,False,
5cd063ce657e300016f6c95a,,,,,,,,,False,
5cd063ce657e300016f6c95a,,,,,,,,,False,
5cd063ce657e300016f6c95a,,,,,,,,,False,
5cd063ce657e300016f6c95a,,,,,,,,,False,
5cd063ce657e300016f6c95a,,,,,,,,,False,
5cd063ce657e300016f6c95a,,,,,,,,,False,
5cd063ce657e300016f6c95a,,,,,,,,,False,
5cd063ce657e300016f6c95a,,,,,,,,,False,
5cd063ce657e300016f6c95a,,,,,,,,,False,
5cd063ce657e300016f6c95a,,,,,,,,,False,
5cd063ce657e300016f6c95a,,,,,,,,,False,
5cd063ce657e300016f6c95a,,,,,,,,,False,
5cd063ce657e300016f6c95a,,,,,,,,,False,
5cd063ce657e300016f6c95a,,,,,,,,,False,
5cd063ce657e300016f6c95a,,,,,,,,,False,
5cd063ce657e300016f6c95a,,,,,,,,,False,
5cd063ce657e300016f6c95a,,,,,,,,,False,
5cd063ce657e300016f6c95a,,,,,,,,,False,
5cd063ce657e300016f6c95a,,,,,,,,,False,
5cd063ce657e300016f6c95a,,,,,,,,,False,
5cd063ce657e300016f6c95a,,,,,,,,,False,
5cd063ce657e300016f6c95a,,,,,,,,,False,
5cd063ce657e300016f6c95a,,,,,,,,,False,
5cd063ce657e300016f6c95a,,,,,,,,,False,
5cd063ce657e300016f6c95a,,,,,,,,,False,
5cd063ce657e300016f6c95a,,,,,,,,,False,
5cd063ce657e300016f6c95a,,,,,,,,,False,
5cd063ce657e300016f6c95a,,,,,,,,,False,
5cd063ce657e300016f6c95a,,,,,,,,,False,
5cd063ce657e300016f6c95a,,,,,,,,,False,
5cd063ce657e300016f6c95a,,,,,,,,,False,
5cd063ce657e300016f6c95a,,,,,,,,,False,
5cd063ce657e300016f6c95a,,,,,,,,,False,
5cd063ce657e300016f6c95a,,,,,,,,,False,
5cd063ce657e300016f6c95a,,,,,,,,,False,
5cd063ce657e300016f6c95a,,,,,,,,,False,
5cd063ce657e300016f6c95a,,,,,,,,,False,
5cd063ce657e300016f6c95a,,,,,,,,,False,
5cd063ce657e300016f6c95a,,,,,,,,,False,
5cd063ce657e300016f6c95a,,,,,,,,,False,
5cd063ce657e300016f6c95a,,,,,,,,,False,
5cd063ce657e300016f6c95a,,,,,,,,,False,
5cd063ce657e300016f6c95a,,,,,,,,,False,
5cd063ce657e300016f6c95a,,,,,,,,,False,
5cd063ce657e300016f6c95a,,,,,,,,,False,
5cd063ce657e300016f6c95a,,,,,,,,,False,
5cd063ce657e300016f6c95a,,,,,,,,,False,
5cd063ce657e300016f6c95a,,,,,,,,,False,
5cd063ce657e300016f6c95a,,,,,,,,,False,
5cd063ce657e300016f6c95a,,,,,,,,,False,
5cd063ce657e300016f6c95a,,,,,,,,,False,
5cd063ce657e300016f6c95a,,,,,,,,,False,
5cd063ce657e300016f6c95a,,,,,,,,,False,
5cd063ce657e300016f6c95a,,,,,,,,,False,
5cd063ce657e300016f6c95a,,,,,,,,,False,
5cd063ce657e300016f6c95a,,,,,,,,,False,
5cd063ce657e300016f6c95a,,,,,,,,,False,
5cd063ce657e300016f6c95a,,,,,,,,,False,
5cd063ce657e300016f6c95a,,,,,,,,,False,
5cd063ce657e300016f6c95a,,,,,,,,,False,
5cd063ce657e300016f6c95a,,,,,,,,,False,
5cd063ce657e300016f6c95a,,,,,,,,,False,
5cd063ce657e300016f6c95a,,,,,,,,,False,
5cd063ce657e300016f6c95a,,,,,,,,,False,
5cd063ce657e300016f6c95a,,,,,,,,,False,
5cd063ce657e300016f6c95a,,,,,,,,,False,
5cd063ce657e300016f6c95a,,,,,,,,,False,
5cd063ce657e300016f6c95a,,,,,,,,,False,
5cd063ce657e300016f6c95a,,,,,,,,,False,
5cd063ce657e300016f6c95a,,,,,,,,,False,
5cd063ce657e300016f6c95a,,practice,,,,b,1.0,2.2108,False,
5cd063ce657e300016f6c95a,,practice,,,,n,0.0,2.2267,False,
5cd063ce657e300016f6c95a,,practice,,,,b,1.0,2.4651,False,
5cd063ce657e300016f6c95a,,practice,,,,n,1.0,5.1473,False,
5cd063ce657e300016f6c95a,,practice,,,,n,1.0,3.3587,False,
5cd063ce657e300016f6c95a,,practice,,,,b,0.0,4.8646,False,
5cd063ce657e300016f6c95a,,practice,,,,n,0.0,2.631,False,
5cd063ce657e300016f6c95a,,practice,,,,n,1.0,3.7296,False,
5cd063ce657e300016f6c95a,,practice,,,,n,1.0,3.4307,False,
5cd063ce657e300016f6c95a,,practice,,,,b,1.0,2.3319,False,
5cd063ce657e300016f6c95a,,practice,,,,b,1.0,2.3749,False,
5cd063ce657e300016f6c95a,,practice,,,,n,1.0,2.8191,False,
5cd063ce657e300016f6c95a,,test,0.0,Different,AD0,n,1.0,3.5362,False,
5cd063ce657e300016f6c95a,,test,0.0,Same,AD0,b,1.0,1.5245,False,
5cd063ce657e300016f6c95a,,test,50.0,Different,AD50,n,1.0,2.5555,False,
5cd063ce657e300016f6c95a,,test,100.0,Different,AD100,n,1.0,4.6342,False,
5cd063ce657e300016f6c95a,,test,100.0,Different,AD100,b,0.0,3.0877,False,
5cd063ce657e300016f6c95a,,test,0.0,Same,AD0,b,1.0,3.1869,False,
5cd063ce657e300016f6c95a,,test,50.0,Different,AD50,n,1.0,2.8145,False,
5cd063ce657e300016f6c95a,,test,0.0,Same,AD0,b,1.0,1.4201,False,
5cd063ce657e300016f6c95a,,test,150.0,Same,AD150,b,1.0,2.7498,False,
5cd063ce657e300016f6c95a,,test,100.0,Different,AD100,n,1.0,3.0925,False,
5cd063ce657e300016f6c95a,,test,100.0,Different,AD100,n,1.0,3.7591,False,
5cd063ce657e300016f6c95a,,test,100.0,Same,AD100,b,1.0,2.0419,False,
5cd063ce657e300016f6c95a,,test,100.0,Different,AD100,n,1.0,5.8953,False,
5cd063ce657e300016f6c95a,,test,50.0,Same,AD50,b,1.0,1.9842,False,
5cd063ce657e300016f6c95a,,test,100.0,Different,AD100,n,1.0,5.7474,False,
5cd063ce657e300016f6c95a,,test,100.0,Same,AD100,b,1.0,1.3592,False,
5cd063ce657e300016f6c95a,,test,150.0,Same,AD150,b,1.0,6.317,False,
5cd063ce657e300016f6c95a,,test,150.0,Different,AD150,n,1.0,4.6676,False,
5cd063ce657e300016f6c95a,,,150.0,Same,AD150,,,,False,
5cd063ce657e300016f6c95a,,test,50.0,Different,AD50,n,1.0,4.3934,False,
5cd063ce657e300016f6c95a,,test,100.0,Same,AD100,b,1.0,2.1126,False,
5cd063ce657e300016f6c95a,,test,50.0,Different,AD50,n,1.0,3.2291,False,
5cd063ce657e300016f6c95a,,test,150.0,Different,AD150,n,1.0,6.1343,False,
5cd063ce657e300016f6c95a,,test,50.0,Same,AD50,b,1.0,1.5176,False,
5cd063ce657e300016f6c95a,,test,0.0,Same,AD0,b,1.0,1.0677,False,
5cd063ce657e300016f6c95a,,test,0.0,Different,AD0,b,0.0,4.0589,False,
5cd063ce657e300016f6c95a,,test,0.0,Different,AD0,n,1.0,1.7737,False,
5cd063ce657e300016f6c95a,,test,50.0,Same,AD50,b,1.0,1.0873,False,
5cd063ce657e300016f6c95a,,test,150.0,Different,AD150,n,1.0,3.3148,False,
5cd063ce657e300016f6c95a,,test,50.0,Same,AD50,b,1.0,1.3208,False,
5cd063ce657e300016f6c95a,,test,100.0,Same,AD100,b,1.0,4.2521,False,
5cd063ce657e300016f6c95a,,test,0.0,Same,AD0,b,1.0,1.04,False,
5cd063ce657e300016f6c95a,,test,150.0,Different,AD150,n,1.0,1.1801,False,
5cd063ce657e300016f6c95a,,test,150.0,Same,AD150,n,0.0,1.6508,False,
5cd063ce657e300016f6c95a,,test,150.0,Different,AD150,n,1.0,4.061,False,
5cd063ce657e300016f6c95a,,test,100.0,Same,AD100,b,1.0,2.7066,False,
5cd063ce657e300016f6c95a,,test,50.0,Same,AD50,b,1.0,1.3733,False,
5cd063ce657e300016f6c95a,,test,150.0,Same,AD150,b,1.0,2.2958,False,
5cd063ce657e300016f6c95a,,test,50.0,Different,AD50,n,1.0,1.1966,False,
5cd063ce657e300016f6c95a,,test,0.0,Same,AD0,b,1.0,1.0757,False,
5cd063ce657e300016f6c95a,,test,0.0,Different,AD0,n,1.0,2.8522,False,
5cd063ce657e300016f6c95a,,test,0.0,Different,AD0,n,1.0,2.5489,False,
5cd063ce657e300016f6c95a,,test,100.0,Same,AD100,b,1.0,1.6385,False,
5cd063ce657e300016f6c95a,,test,50.0,Different,AD50,n,1.0,3.9845,False,
5cd063ce657e300016f6c95a,,test,0.0,Different,AD0,n,1.0,3.0331,False,
5cd063ce657e300016f6c95a,,test,150.0,Same,AD150,b,1.0,1.3959,False,
5cd063ce657e300016f6c95a,,test,50.0,Same,AD50,b,1.0,1.3508,False,
5cd063ce657e300016f6c95a,,test,150.0,Different,AD150,n,1.0,1.6293,False,
5cd063ce657e300016f6c95a,,test,150.0,Same,AD150,b,1.0,2.5152,False,
5cd063ce657e300016f6c95a,,test,100.0,Same,AD100,b,1.0,1.5051,False,
5cd063ce657e300016f6c95a,,test,0.0,Different,AD0,n,1.0,1.2766,False,
5cd063ce657e300016f6c95a,,test,100.0,Different,AD100,n,1.0,1.4996,False,
5cd063ce657e300016f6c95a,,test,0.0,Same,AD0,b,1.0,0.9436,False,
5cd063ce657e300016f6c95a,,test,150.0,Different,AD150,n,1.0,1.5532,False,
5cd063ce657e300016f6c95a,,test,50.0,Same,AD50,b,1.0,1.2912,False,
5cd063ce657e300016f6c95a,,test,150.0,Different,AD150,n,1.0,1.5103,False,
5cd063ce657e300016f6c95a,,test,150.0,Same,AD150,b,1.0,5.4029,False,
5cd063ce657e300016f6c95a,,test,100.0,Different,AD100,n,1.0,1.9997,False,
5cd063ce657e300016f6c95a,,test,100.0,Same,AD100,b,1.0,1.6849,False,
5cd063ce657e300016f6c95a,,test,50.0,Different,AD50,n,1.0,1.3432,False,
5cd063ce657e300016f6c95a,,test,50.0,Different,AD50,n,1.0,1.4825,False,
5cd063ce657e300016f6c95a,,test,100.0,Different,AD100,n,1.0,3.5493,False,
5cd063ce657e300016f6c95a,,test,100.0,Same,AD100,b,1.0,2.728,False,
5cd063ce657e300016f6c95a,,test,0.0,Different,AD0,n,1.0,1.1551,False,
5cd063ce657e300016f6c95a,,test,50.0,Different,AD50,b,0.0,1.6683,False,
5cd063ce657e300016f6c95a,,test,150.0,Different,AD150,n,1.0,4.4055,False,
5cd063ce657e300016f6c95a,,test,50.0,Same,AD50,b,1.0,3.6389,False,
5cd063ce657e300016f6c95a,,test,50.0,Different,AD50,n,1.0,1.8121,False,
5cd063ce657e300016f6c95a,,test,0.0,Same,AD0,b,1.0,1.0254,False,
5cd063ce657e300016f6c95a,,test,0.0,Different,AD0,n,1.0,1.0257,False,
5cd063ce657e300016f6c95a,,test,100.0,Different,AD100,n,1.0,2.8349,False,
5cd063ce657e300016f6c95a,,test,150.0,Same,AD150,b,1.0,1.8885,False,
5cd063ce657e300016f6c95a,,test,100.0,Different,AD100,n,1.0,4.0832,False,
5cd063ce657e300016f6c95a,,test,50.0,Same,AD50,b,1.0,1.1119,False,
5cd063ce657e300016f6c95a,,test,50.0,Same,AD50,b,1.0,1.2049,False,
5cd063ce657e300016f6c95a,,test,100.0,Different,AD100,n,1.0,1.2564,False,
5cd063ce657e300016f6c95a,,test,150.0,Same,AD150,b,1.0,1.5163,False,
5cd063ce657e300016f6c95a,,test,150.0,Same,AD150,b,1.0,2.364,False,
5cd063ce657e300016f6c95a,,test,150.0,Different,AD150,n,1.0,2.7813,False,
5cd063ce657e300016f6c95a,,test,150.0,Different,AD150,n,1.0,2.4098,False,
5cd063ce657e300016f6c95a,,test,100.0,Same,AD100,b,1.0,1.5377,False,
5cd063ce657e300016f6c95a,,test,0.0,Same,AD0,b,1.0,0.9749,False,
5cd063ce657e300016f6c95a,,test,0.0,Different,AD0,n,1.0,1.2395,False,
5cd063ce657e300016f6c95a,,test,150.0,Same,AD150,b,1.0,1.6083,False,
5cd063ce657e300016f6c95a,,test,50.0,Different,AD50,n,1.0,1.9597,False,
5cd063ce657e300016f6c95a,,test,150.0,Different,AD150,n,1.0,5.9001,False,
5cd063ce657e300016f6c95a,,test,50.0,Same,AD50,b,1.0,1.6697,False,
5cd063ce657e300016f6c95a,,test,0.0,Same,AD0,b,1.0,0.8046,False,
5cd063ce657e300016f6c95a,,test,0.0,Same,AD0,b,1.0,0.9016,False,
5cd063ce657e300016f6c95a,,test,0.0,Different,AD0,n,1.0,1.2865,False,
5cd063ce657e300016f6c95a,,test,50.0,Same,AD50,b,1.0,3.2795,False,
5cd063ce657e300016f6c95a,,test,100.0,Same,AD100,b,1.0,2.0466,False,
5cd063ce657e300016f6c95a,,test,0.0,Same,AD0,b,1.0,0.8214,False,
5cd063ce657e300016f6c95a,,test,50.0,Different,AD50,n,1.0,1.6451,False,
5cd063ce657e300016f6c95a,,test,100.0,Same,AD100,n,0.0,3.405,False,
5cd063ce657e300016f6c95a,,test,0.0,Different,AD0,n,1.0,1.6575,False,
5cd063ce657e300016f6c95a,,,,,,,,,False,
5cd063ce657e300016f6c95a,,,,,,,,,False,
678e92010390e1c202944292,1.0,,,,,,,,False,
678e92010390e1c202944292,,,,,,,,,False,
678e92010390e1c202944292,,,,,,,,,False,
678e92010390e1c202944292,,,,,,,,,False,
678e92010390e1c202944292,,,,,,,,,False,
678e92010390e1c202944292,,,,,,,,,False,
678e92010390e1c202944292,,,,,,,,,False,
678e92010390e1c202944292,,,,,,,,,False,
678e92010390e1c202944292,,,,,,,,,False,
678e92010390e1c202944292,,,,,,,,,False,
678e92010390e1c202944292,,,,,,,,,False,
678e92010390e1c202944292,,,,,,,,,False,
678e92010390e1c202944292,,,,,,,,,False,
678e92010390e1c202944292,,,,,,,,,False,
678e92010390e1c202944292,,,,,,,,,False,
678e92010390e1c202944292,,,,,,,,,False,
678e92010390e1c202944292,,,,,,,,,False,
678e92010390e1c202944292,,,,,,,,,False,
678e92010390e1c202944292,,,,,,,,,False,
678e92010390e1c202944292,,,,,,,,,False,
678e92010390e1c202944292,,,,,,,,,False,
678e92010390e1c202944292,,,,,,,,,False,
678e92010390e1c202944292,,,,,,,,,False,
678e92010390e1c202944292,,,,,,,,,False,
678e92010390e1c202944292,,,,,,,,,False,
678e92010390e1c202944292,,,,,,,,,False,
678e92010390e1c202944292,,,,,,,,,False,
678e92010390e1c202944292,,,,,,,,,False,
678e92010390e1c202944292,,,,,,,,,False,
678e92010390e1c202944292,,,,,,,,,False,
678e92010390e1c202944292,,,,,,,,,False,
678e92010390e1c202944292,,,,,,,,,False,
678e92010390e1c202944292,,,,,,,,,False,
678e92010390e1c202944292,,,,,,,,,False,
678e92010390e1c202944292,,,,,,,,,False,
678e92010390e1c202944292,,,,,,,,,False,
678e92010390e1c202944292,,,,,,,,,False,
678e92010390e1c202944292,,,,,,,,,False,
678e92010390e1c202944292,,,,,,,,,False,
678e92010390e1c202944292,,,,,,,,,False,
678e92010390e1c202944292,,,,,,,,,False,
678e92010390e1c202944292,,,,,,,,,False,
678e92010390e1c202944292,,,,,,,,,False,
678e92010390e1c202944292,,,,,,,,,False,
678e92010390e1c202944292,,,,,,,,,False,
678e92010390e1c202944292,,,,,,,,,False,
678e92010390e1c202944292,,,,,,,,,False,
678e92010390e1c202944292,,,,,,,,,False,
678e92010390e1c202944292,,,,,,,,,False,
678e92010390e1c202944292,,,,,,,,,False,
678e92010390e1c202944292,,,,,,,,,False,
678e92010390e1c202944292,,,,,,,,,False,
678e92010390e1c202944292,,,,,,,,,False,
678e92010390e1c202944292,,,,,,,,,False,
678e92010390e1c202944292,,,,,,,,,False,
678e92010390e1c202944292,,,,,,,,,False,
678e92010390e1c202944292,,,,,,,,,False,
678e92010390e1c202944292,,,,,,,,,False,
678e92010390e1c202944292,,,,,,,,,False,
678e92010390e1c202944292,,,,,,,,,False,
678e92010390e1c202944292,,,,,,,,,False,
678e92010390e1c202944292,,,,,,,,,False,
678e92010390e1c202944292,,,,,,,,,False,
678e92010390e1c202944292,,,,,,,,,False,
678e92010390e1c202944292,,,,,,,,,False,
678e92010390e1c202944292,,,,,,,,,False,
678e92010390e1c202944292,,,,,,,,,False,
678e92010390e1c202944292,,,,,,,,,False,
678e92010390e1c202944292,,,,,,,,,False,
678e92010390e1c202944292,,,,,,,,,False,
678e92010390e1c202944292,,,,,,,,,False,
678e92010390e1c202944292,,,,,,,,,False,
678e92010390e1c202944292,,,,,,,,,False,
678e92010390e1c202944292,,,,,,,,,False,
678e92010390e1c202944292,,,,,,,,,False,
678e92010390e1c202944292,,,,,,,,,False,
678e92010390e1c202944292,,,,,,,,,False,
678e92010390e1c202944292,,,,,,,,,False,
678e92010390e1c202944292,,,,,,,,,False,
678e92010390e1c202944292,,,,,,,,,False,
678e92010390e1c202944292,,,,,,,,,False,
678e92010390e1c202944292,,,,,,,,,False,
678e92010390e1c202944292,,,,,,,,,False,
678e92010390e1c202944292,,,,,,,,,False,
678e92010390e1c202944292,,,,,,,,,False,
678e92010390e1c202944292,,,,,,,,,False,
678e92010390e1c202944292,,,,,,,,,False,
678e92010390e1c202944292,,,,,,,,,False,
678e92010390e1c202944292,,,,,,,,,False,
678e92010390e1c202944292,,,,,,,,,False,
678e92010390e1c202944292,,,,,,,,,False,
678e92010390e1c202944292,,,,,,,,,False,
678e92010390e1c202944292,,,,,,,,,False,
678e92010390e1c202944292,,,,,,,,,False,
678e92010390e1c202944292,,,,,,,,,False,
678e92010390e1c202944292,,,,,,,,,False,
678e92010390e1c202944292,,,,,,,,,False,
678e92010390e1c202944292,,,,,,,,,False,
678e92010390e1c202944292,,,,,,,,,False,
678e92010390e1c202944292,,,,,,,,,False,
678e92010390e1c202944292,,,,,,,,,False,
678e92010390e1c202944292,,,,,,,,,False,
678e92010390e1c202944292,,,,,,,,,False,
678e92010390e1c202944292,,,,,,,,,False,
678e92010390e1c202944292,,,,,,,,,False,
678e92010390e1c202944292,,,,,,,,,False,
678e92010390e1c202944292,,,,,,,,,False,
678e92010390e1c202944292,,,,,,,,,False,
678e92010390e1c202944292,,,,,,,,,False,
678e92010390e1c202944292,,,,,,,,,False,
678e92010390e1c202944292,,,,,,,,,False,
678e92010390e1c202944292,,,,,,,,,False,
678e92010390e1c202944292,,,,,,,,,False,
678e92010390e1c202944292,,,,,,,,,False,
678e92010390e1c202944292,,,,,,,,,False,
678e92010390e1c202944292,,,,,,,,,False,
678e92010390e1c202944292,,,,,,,,,False,
678e92010390e1c202944292,,,,,,,,,False,
678e92010390e1c202944292,,,,,,,,,False,
678e92010390e1c202944292,,,,,,,,,False,
678e92010390e1c202944292,,,,,,,,,False,
678e92010390e1c202944292,,,,,,,,,False,
678e92010390e1c202944292,,,,,,,,,False,
678e92010390e1c202944292,,,,,,,,,False,
678e92010390e1c202944292,,,,,,,,,False,
678e92010390e1c202944292,,,,,,,,,False,
678e92010390e1c202944292,,,,,,,,,False,
678e92010390e1c202944292,,,,,,,,,False,
678e92010390e1c202944292,,,,,,,,,False,
678e92010390e1c202944292,,,,,,,,,False,
678e92010390e1c202944292,,,,,,,,,False,
678e92010390e1c202944292,,,,,,,,,False,
678e92010390e1c202944292,,,,,,,,,False,
678e92010390e1c202944292,,,,,,,,,False,
678e92010390e1c202944292,,,,,,,,,False,
678e92010390e1c202944292,,,,,,,,,False,
678e92010390e1c202944292,,,,,,,,,False,
678e92010390e1c202944292,,,,,,,,,False,
678e92010390e1c202944292,,,,,,,,,False,
678e92010390e1c202944292,,,,,,,,,False,
678e92010390e1c202944292,,,,,,,,,False,
678e92010390e1c202944292,,,,,,,,,False,
678e92010390e1c202944292,,,,,,,,,False,
678e92010390e1c202944292,,,,,,,,,False,
678e92010390e1c202944292,,,,,,,,,False,
678e92010390e1c202944292,,,,,,,,,False,
678e92010390e1c202944292,,,,,,,,,False,
678e92010390e1c202944292,,,,,,,,,False,
678e92010390e1c202944292,,,,,,,,,False,
678e92010390e1c202944292,,,,,,,,,False,
678e92010390e1c202944292,,practice,,,,n,1.0,3.977,False,
678e92010390e1c202944292,,practice,,,,b,1.0,2.4122,False,
678e92010390e1c202944292,,practice,,,,b,1.0,2.4637,False,
678e92010390e1c202944292,,practice,,,,b,1.0,2.3323,False,
678e92010390e1c202944292,,practice,,,,n,1.0,2.3303,False,
678e92010390e1c202944292,,practice,,,,n,1.0,2.7892,False,
678e92010390e1c202944292,,practice,,,,n,1.0,2.3084,False,
678e92010390e1c202944292,,practice,,,,b,1.0,2.0114,False,
678e92010390e1c202944292,,practice,,,,n,1.0,1.9115,False,
678e92010390e1c202944292,,practice,,,,b,1.0,1.8146,False,
678e92010390e1c202944292,,practice,,,,b,1.0,1.5143,False,
678e92010390e1c202944292,,test,150.0,Same,AD150,b,1.0,2.9656,False,
678e92010390e1c202944292,,test,50.0,Same,AD50,b,1.0,1.7506,False,
678e92010390e1c202944292,,test,50.0,Different,AD50,n,1.0,1.482,False,
678e92010390e1c202944292,,test,150.0,Different,AD150,n,1.0,2.1304,False,
678e92010390e1c202944292,,test,0.0,Different,AD0,n,1.0,1.5474,False,
678e92010390e1c202944292,,test,100.0,Same,AD100,b,1.0,1.7807,False,
678e92010390e1c202944292,,test,100.0,Different,AD100,n,1.0,2.0285,False,
678e92010390e1c202944292,,test,0.0,Different,AD0,b,0.0,2.1171,True,RT outlier (> 2.5SD) in AD0
678e92010390e1c202944292,,test,150.0,Same,AD150,b,1.0,2.8834,False,
678e92010390e1c202944292,,test,50.0,Same,AD50,b,1.0,1.1796,False,
678e92010390e1c202944292,,test,0.0,Different,AD0,n,1.0,1.1169,False,
678e92010390e1c202944292,,test,100.0,Different,AD100,n,1.0,1.7982,False,
678e92010390e1c202944292,,test,0.0,Same,AD0,b,1.0,1.3071,False,
678e92010390e1c202944292,,test,50.0,Different,AD50,n,1.0,1.9791,False,
678e92010390e1c202944292,,test,0.0,Same,AD0,b,1.0,1.5121,False,
678e92010390e1c202944292,,test,100.0,Same,AD100,b,1.0,3.8834,False,
678e92010390e1c202944292,,test,50.0,Different,AD50,n,1.0,1.4324,False,
678e92010390e1c202944292,,test,50.0,Same,AD50,b,1.0,1.1815,False,
678e92010390e1c202944292,,test,0.0,Same,AD0,b,1.0,1.301,False,
678e92010390e1c202944292,,test,50.0,Different,AD50,n,1.0,1.2959,False,
678e92010390e1c202944292,,test,150.0,Same,AD150,b,1.0,1.5643,False,
678e92010390e1c202944292,,test,0.0,Same,AD0,b,1.0,1.2453,False,
678e92010390e1c202944292,,test,150.0,Same,AD150,b,1.0,2.6313,False,
678e92010390e1c202944292,,test,50.0,Different,AD50,b,0.0,1.2453,False,
678e92010390e1c202944292,,test,150.0,Different,AD150,n,1.0,1.8974,False,
678e92010390e1c202944292,,test,100.0,Same,AD100,b,1.0,1.6632,False,
678e92010390e1c202944292,,test,0.0,Same,AD0,b,1.0,1.5465,False,
678e92010390e1c202944292,,test,0.0,Different,AD0,n,1.0,1.2498,False,
678e92010390e1c202944292,,test,150.0,Different,AD150,b,0.0,1.4351,False,
678e92010390e1c202944292,,test,50.0,Different,AD50,n,1.0,2.4462,False,
678e92010390e1c202944292,,test,50.0,Same,AD50,b,1.0,1.7616,False,
678e92010390e1c202944292,,test,100.0,Different,AD100,n,1.0,3.6793,False,
678e92010390e1c202944292,,test,150.0,Different,AD150,b,0.0,1.4655,False,
678e92010390e1c202944292,,test,50.0,Same,AD50,b,1.0,1.397,False,
678e92010390e1c202944292,,test,0.0,Same,AD0,b,1.0,1.3449,False,
678e92010390e1c202944292,,test,150.0,Same,AD150,b,1.0,3.048,False,
678e92010390e1c202944292,,test,150.0,Different,AD150,n,1.0,3.6815,False,
678e92010390e1c202944292,,test,150.0,Same,AD150,b,1.0,2.6461,False,
678e92010390e1c202944292,,test,0.0,Different,AD0,b,0.0,1.4452,False,
678e92010390e1c202944292,,test,100.0,Different,AD100,n,1.0,2.195,False,
678e92010390e1c202944292,,test,100.0,Different,AD100,b,0.0,2.7096,False,
678e92010390e1c202944292,,test,100.0,Same,AD100,b,1.0,2.8765,False,
678e92010390e1c202944292,,test,0.0,Different,AD0,n,1.0,1.3814,False,
678e92010390e1c202944292,,test,50.0,Same,AD50,b,1.0,1.3629,False,
678e92010390e1c202944292,,test,150.0,Different,AD150,n,1.0,2.4623,False,
678e92010390e1c202944292,,test,100.0,Same,AD100,b,1.0,1.3302,False,
678e92010390e1c202944292,,test,100.0,Same,AD100,b,1.0,1.6599,False,
678e92010390e1c202944292,,test,100.0,Different,AD100,n,1.0,1.7784,False,
678e92010390e1c202944292,,test,100.0,Same,AD100,b,1.0,1.7131,False,
678e92010390e1c202944292,,test,100.0,Different,AD100,n,1.0,2.0639,False,
678e92010390e1c202944292,,test,50.0,Different,AD50,n,1.0,2.4461,False,
678e92010390e1c202944292,,test,100.0,Different,AD100,n,1.0,1.747,False,
678e92010390e1c202944292,,test,50.0,Same,AD50,b,1.0,2.013,False,
678e92010390e1c202944292,,test,0.0,Same,AD0,b,1.0,1.0652,False,
678e92010390e1c202944292,,test,0.0,Different,AD0,n,1.0,1.5464,False,
678e92010390e1c202944292,,test,0.0,Same,AD0,b,1.0,1.646,False,
678e92010390e1c202944292,,test,100.0,Same,AD100,b,1.0,1.7304,False,
678e92010390e1c202944292,,test,150.0,Different,AD150,n,1.0,1.7806,False,
678e92010390e1c202944292,,test,50.0,Same,AD50,b,1.0,1.1472,False,
678e92010390e1c202944292,,test,100.0,Different,AD100,n,1.0,1.649,False,
678e92010390e1c202944292,,test,150.0,Same,AD150,b,1.0,1.8473,False,
678e92010390e1c202944292,,test,150.0,Same,AD150,b,1.0,2.6449,False,
678e92010390e1c202944292,,test,0.0,Same,AD0,b,1.0,0.9336,False,
678e92010390e1c202944292,,test,50.0,Different,AD50,n,1.0,2.4131,False,
678e92010390e1c202944292,,test,0.0,Same,AD0,b,1.0,1.6643,False,
678e92010390e1c202944292,,test,100.0,Different,AD100,n,1.0,1.2836,False,
678e92010390e1c202944292,,test,50.0,Different,AD50,n,1.0,2.2986,False,
678e92010390e1c202944292,,test,150.0,Same,AD150,b,1.0,1.7268,False,
678e92010390e1c202944292,,test,50.0,Same,AD50,b,1.0,1.4968,False,
678e92010390e1c202944292,,test,0.0,Different,AD0,n,1.0,1.498,False,
678e92010390e1c202944292,,test,100.0,Same,AD100,n,0.0,4.1631,False,
678e92010390e1c202944292,,test,150.0,Same,AD150,b,1.0,1.747,False,
678e92010390e1c202944292,,test,50.0,Different,AD50,n,1.0,1.8288,False,
678e92010390e1c202944292,,test,50.0,Same,AD50,b,1.0,1.7291,False,
678e92010390e1c202944292,,test,50.0,Same,AD50,b,1.0,1.0947,False,
678e92010390e1c202944292,,test,150.0,Different,AD150,n,1.0,1.7133,False,
678e92010390e1c202944292,,test,0.0,Different,AD0,n,1.0,1.8418,False,
678e92010390e1c202944292,,test,100.0,Same,AD100,b,1.0,1.215,False,
678e92010390e1c202944292,,test,50.0,Different,AD50,n,1.0,0.9353,False,
678e92010390e1c202944292,,test,150.0,Same,AD150,b,1.0,1.7107,False,
678e92010390e1c202944292,,test,0.0,Different,AD0,n,1.0,1.6273,False,
678e92010390e1c202944292,,test,150.0,Different,AD150,n,1.0,1.547,False,
678e92010390e1c202944292,,test,150.0,Same,AD150,b,1.0,1.6621,False,
678e92010390e1c202944292,,test,100.0,Different,AD100,n,1.0,2.0608,False,
678e92010390e1c202944292,,test,150.0,Different,AD150,n,1.0,1.2842,False,
678e92010390e1c202944292,,test,0.0,Same,AD0,b,1.0,1.1708,False,
678e92010390e1c202944292,,test,150.0,Different,AD150,n,1.0,1.4014,False,
678e92010390e1c202944292,,test,100.0,Same,AD100,b,1.0,3.2276,False,
678e92010390e1c202944292,,test,100.0,Different,AD100,n,1.0,1.2773,False,
678e92010390e1c202944292,,test,150.0,Different,AD150,n,1.0,2.5471,False,
678e92010390e1c202944292,,test,100.0,Same,AD100,b,1.0,4.7984,True,RT outlier (> 2.5SD) in AD100
678e92010390e1c202944292,,test,50.0,Different,AD50,n,1.0,1.2457,False,
678e92010390e1c202944292,,test,0.0,Different,AD0,n,1.0,1.3783,False,
678e92010390e1c202944292,,test,50.0,Same,AD50,b,1.0,2.8632,False,
678e92010390e1c202944292,,test,0.0,Same,AD0,b,1.0,1.0142,False,
678e92010390e1c202944292,,test,0.0,Different,AD0,n,1.0,1.7294,False,
678e92010390e1c202944292,,,,,,,,,False,
678e92010390e1c202944292,,,,,,,,,False,
64013a8e233aaa42388c821f,1.0,,,,,,,,False,
64013a8e233aaa42388c821f,,,,,,,,,False,
64013a8e233aaa42388c821f,,,,,,,,,False,
64013a8e233aaa42388c821f,,,,,,,,,False,
64013a8e233aaa42388c821f,,,,,,,,,False,
64013a8e233aaa42388c821f,,,,,,,,,False,
64013a8e233aaa42388c821f,,,,,,,,,False,
64013a8e233aaa42388c821f,,,,,,,,,False,
64013a8e233aaa42388c821f,,,,,,,,,False,
64013a8e233aaa42388c821f,,,,,,,,,False,
64013a8e233aaa42388c821f,,,,,,,,,False,
64013a8e233aaa42388c821f,,,,,,,,,False,
64013a8e233aaa42388c821f,,,,,,,,,False,
64013a8e233aaa42388c821f,,,,,,,,,False,
64013a8e233aaa42388c821f,,,,,,,,,False,
64013a8e233aaa42388c821f,,,,,,,,,False,
64013a8e233aaa42388c821f,,,,,,,,,False,
64013a8e233aaa42388c821f,,,,,,,,,False,
64013a8e233aaa42388c821f,,,,,,,,,False,
64013a8e233aaa42388c821f,,,,,,,,,False,
64013a8e233aaa42388c821f,,,,,,,,,False,
64013a8e233aaa42388c821f,,,,,,,,,False,
64013a8e233aaa42388c821f,,,,,,,,,False,
64013a8e233aaa42388c821f,,,,,,,,,False,
64013a8e233aaa42388c821f,,,,,,,,,False,
64013a8e233aaa42388c821f,,,,,,,,,False,
64013a8e233aaa42388c821f,,,,,,,,,False,
64013a8e233aaa42388c821f,,,,,,,,,False,
64013a8e233aaa42388c821f,,,,,,,,,False,
64013a8e233aaa42388c821f,,,,,,,,,False,
64013a8e233aaa42388c821f,,,,,,,,,False,
64013a8e233aaa42388c821f,,,,,,,,,False,
64013a8e233aaa42388c821f,,,,,,,,,False,
64013a8e233aaa42388c821f,,,,,,,,,False,
64013a8e233aaa42388c821f,,,,,,,,,False,
64013a8e233aaa42388c821f,,,,,,,,,False,
64013a8e233aaa42388c821f,,,,,,,,,False,
64013a8e233aaa42388c821f,,,,,,,,,False,
64013a8e233aaa42388c821f,,,,,,,,,False,
64013a8e233aaa42388c821f,,,,,,,,,False,
64013a8e233aaa42388c821f,,,,,,,,,False,
64013a8e233aaa42388c821f,,,,,,,,,False,
64013a8e233aaa42388c821f,,,,,,,,,False,
64013a8e233aaa42388c821f,,,,,,,,,False,
64013a8e233aaa42388c821f,,,,,,,,,False,
64013a8e233aaa42388c821f,,,,,,,,,False,
64013a8e233aaa42388c821f,,,,,,,,,False,
64013a8e233aaa42388c821f,,,,,,,,,False,
64013a8e233aaa42388c821f,,,,,,,,,False,
64013a8e233aaa42388c821f,,,,,,,,,False,
64013a8e233aaa42388c821f,,,,,,,,,False,
64013a8e233aaa42388c821f,,,,,,,,,False,
64013a8e233aaa42388c821f,,,,,,,,,False,
64013a8e233aaa42388c821f,,,,,,,,,False,
64013a8e233aaa42388c821f,,,,,,,,,False,
64013a8e233aaa42388c821f,,,,,,,,,False,
64013a8e233aaa42388c821f,,,,,,,,,False,
64013a8e233aaa42388c821f,,,,,,,,,False,
64013a8e233aaa42388c821f,,,,,,,,,False,
64013a8e233aaa42388c821f,,,,,,,,,False,
64013a8e233aaa42388c821f,,,,,,,,,False,
64013a8e233aaa42388c821f,,,,,,,,,False,
64013a8e233aaa42388c821f,,,,,,,,,False,
64013a8e233aaa42388c821f,,,,,,,,,False,
64013a8e233aaa42388c821f,,,,,,,,,False,
64013a8e233aaa42388c821f,,,,,,,,,False,
64013a8e233aaa42388c821f,,,,,,,,,False,
64013a8e233aaa42388c821f,,,,,,,,,False,
64013a8e233aaa42388c821f,,,,,,,,,False,
64013a8e233aaa42388c821f,,,,,,,,,False,
64013a8e233aaa42388c821f,,,,,,,,,False,
64013a8e233aaa42388c821f,,,,,,,,,False,
64013a8e233aaa42388c821f,,,,,,,,,False,
64013a8e233aaa42388c821f,,,,,,,,,False,
64013a8e233aaa42388c821f,,,,,,,,,False,
64013a8e233aaa42388c821f,,,,,,,,,False,
64013a8e233aaa42388c821f,,,,,,,,,False,
64013a8e233aaa42388c821f,,,,,,,,,False,
64013a8e233aaa42388c821f,,,,,,,,,False,
64013a8e233aaa42388c821f,,,,,,,,,False,
64013a8e233aaa42388c821f,,,,,,,,,False,
64013a8e233aaa42388c821f,,,,,,,,,False,
64013a8e233aaa42388c821f,,,,,,,,,False,
64013a8e233aaa42388c821f,,,,,,,,,False,
64013a8e233aaa42388c821f,,,,,,,,,False,
64013a8e233aaa42388c821f,,,,,,,,,False,
64013a8e233aaa42388c821f,,,,,,,,,False,
64013a8e233aaa42388c821f,,,,,,,,,False,
64013a8e233aaa42388c821f,,,,,,,,,False,
64013a8e233aaa42388c821f,,,,,,,,,False,
64013a8e233aaa42388c821f,,,,,,,,,False,
64013a8e233aaa42388c821f,,,,,,,,,False,
64013a8e233aaa42388c821f,,,,,,,,,False,
64013a8e233aaa42388c821f,,,,,,,,,False,
64013a8e233aaa42388c821f,,,,,,,,,False,
64013a8e233aaa42388c821f,,,,,,,,,False,
64013a8e233aaa42388c821f,,,,,,,,,False,
64013a8e233aaa42388c821f,,,,,,,,,False,
64013a8e233aaa42388c821f,,,,,,,,,False,
64013a8e233aaa42388c821f,,,,,,,,,False,
64013a8e233aaa42388c821f,,,,,,,,,False,
64013a8e233aaa42388c821f,,,,,,,,,False,
64013a8e233aaa42388c821f,,,,,,,,,False,
64013a8e233aaa42388c821f,,,,,,,,,False,
64013a8e233aaa42388c821f,,,,,,,,,False,
64013a8e233aaa42388c821f,,,,,,,,,False,
64013a8e233aaa42388c821f,,,,,,,,,False,
64013a8e233aaa42388c821f,,,,,,,,,False,
64013a8e233aaa42388c821f,,,,,,,,,False,
64013a8e233aaa42388c821f,,,,,,,,,False,
64013a8e233aaa42388c821f,,,,,,,,,False,
64013a8e233aaa42388c821f,,,,,,,,,False,
64013a8e233aaa42388c821f,,,,,,,,,False,
64013a8e233aaa42388c821f,,,,,,,,,False,
64013a8e233aaa42388c821f,,,,,,,,,False,
64013a8e233aaa42388c821f,,,,,,,,,False,
64013a8e233aaa42388c821f,,,,,,,,,False,
64013a8e233aaa42388c821f,,,,,,,,,False,
64013a8e233aaa42388c821f,,,,,,,,,False,
64013a8e233aaa42388c821f,,,,,,,,,False,
64013a8e233aaa42388c821f,,,,,,,,,False,
64013a8e233aaa42388c821f,,,,,,,,,False,
64013a8e233aaa42388c821f,,,,,,,,,False,
64013a8e233aaa42388c821f,,,,,,,,,False,
64013a8e233aaa42388c821f,,,,,,,,,False,
64013a8e233aaa42388c821f,,,,,,,,,False,
64013a8e233aaa42388c821f,,,,,,,,,False,
64013a8e233aaa42388c821f,,,,,,,,,False,
64013a8e233aaa42388c821f,,,,,,,,,False,
64013a8e233aaa42388c821f,,,,,,,,,False,
64013a8e233aaa42388c821f,,,,,,,,,False,
64013a8e233aaa42388c821f,,,,,,,,,False,
64013a8e233aaa42388c821f,,,,,,,,,False,
64013a8e233aaa42388c821f,,,,,,,,,False,
64013a8e233aaa42388c821f,,,,,,,,,False,
64013a8e233aaa42388c821f,,,,,,,,,False,
64013a8e233aaa42388c821f,,,,,,,,,False,
64013a8e233aaa42388c821f,,,,,,,,,False,
64013a8e233aaa42388c821f,,,,,,,,,False,
64013a8e233aaa42388c821f,,,,,,,,,False,
64013a8e233aaa42388c821f,,,,,,,,,False,
64013a8e233aaa42388c821f,,,,,,,,,False,
64013a8e233aaa42388c821f,,,,,,,,,False,
64013a8e233aaa42388c821f,,,,,,,,,False,
64013a8e233aaa42388c821f,,,,,,,,,False,
64013a8e233aaa42388c821f,,,,,,,,,False,
64013a8e233aaa42388c821f,,,,,,,,,False,
64013a8e233aaa42388c821f,,,,,,,,,False,
64013a8e233aaa42388c821f,,,,,,,,,False,
64013a8e233aaa42388c821f,,practice,,,,n,0.0,6.755,False,
64013a8e233aaa42388c821f,,practice,,,,b,0.0,4.74,False,
64013a8e233aaa42388c821f,,practice,,,,n,1.0,4.376,False,
64013a8e233aaa42388c821f,,practice,,,,b,1.0,3.609,False,
64013a8e233aaa42388c821f,,practice,,,,b,0.0,6.408,False,
64013a8e233aaa42388c821f,,practice,,,,n,1.0,3.88,False,
64013a8e233aaa42388c821f,,practice,,,,n,0.0,6.662,False,
64013a8e233aaa42388c821f,,practice,,,,b,1.0,3.584,False,
64013a8e233aaa42388c821f,,practice,,,,b,1.0,2.415,False,
64013a8e233aaa42388c821f,,practice,,,,b,1.0,2.383,False,
64013a8e233aaa42388c821f,,practice,,,,n,1.0,2.864,False,
64013a8e233aaa42388c821f,,practice,,,,n,1.0,2.312,False,
64013a8e233aaa42388c821f,,,,,,,,,False,
64013a8e233aaa42388c821f,,,,,,,,,False,
64013a8e233aaa42388c821f,,practice,,,,n,1.0,3.627,False,
64013a8e233aaa42388c821f,,practice,,,,b,0.0,2.851,False,
64013a8e233aaa42388c821f,,practice,,,,n,0.0,1.883,False,
64013a8e233aaa42388c821f,,practice,,,,n,0.0,1.817,False,
64013a8e233aaa42388c821f,,practice,,,,n,1.0,0.5,False,
64013a8e233aaa42388c821f,,practice,,,,b,1.0,0.016,False,
64013a8e233aaa42388c821f,,practice,,,,b,0.0,0.098,False,
64013a8e233aaa42388c821f,,practice,,,,n,0.0,0.001,False,
64013a8e233aaa42388c821f,,practice,,,,n,1.0,0.248,False,
64013a8e233aaa42388c821f,,practice,,,,b,1.0,0.115,False,
64013a8e233aaa42388c821f,,practice,,,,b,0.0,0.015,False,
64013a8e233aaa42388c821f,,,,,,,,,False,
64013a8e233aaa42388c821f,,practice,,,,b,0.0,1.414,False,
64013a8e233aaa42388c821f,,practice,,,,n,1.0,2.014,False,
64013a8e233aaa42388c821f,,practice,,,,b,1.0,2.652,False,
64013a8e233aaa42388c821f,,practice,,,,n,0.0,3.564,False,
64013a8e233aaa42388c821f,,practice,,,,b,0.0,2.965,False,
64013a8e233aaa42388c821f,,practice,,,,n,0.0,0.3,False,
64013a8e233aaa42388c821f,,practice,,,,b,1.0,0.019,False,
64013a8e233aaa42388c821f,,practice,,,,b,0.0,0.068,False,
64013a8e233aaa42388c821f,,practice,,,,n,0.0,0.001,False,
64013a8e233aaa42388c821f,,practice,,,,b,0.0,0.04,False,
64013a8e233aaa42388c821f,,practice,,,,b,1.0,0.001,False,
64013a8e233aaa42388c821f,,practice,,,,n,1.0,0.085,False,
64013a8e233aaa42388c821f,,,,,,,,,False,
64013a8e233aaa42388c821f,,practice,,,,b,1.0,2.413,False,
64013a8e233aaa42388c821f,,practice,,,,b,0.0,1.466,False,
64013a8e233aaa42388c821f,,practice,,,,b,1.0,2.479,False,
64013a8e233aaa42388c821f,,practice,,,,n,1.0,1.998,False,
64013a8e233aaa42388c821f,,practice,,,,n,1.0,2.485,False,
64013a8e233aaa42388c821f,,practice,,,,n,0.0,2.667,False,
64013a8e233aaa42388c821f,,practice,,,,b,1.0,2.951,False,
64013a8e233aaa42388c821f,,practice,,,,b,1.0,2.73,False,
64013a8e233aaa42388c821f,,practice,,,,n,1.0,2.213,False,
64013a8e233aaa42388c821f,,practice,,,,b,0.0,4.096,False,
64013a8e233aaa42388c821f,,practice,,,,n,1.0,2.433,False,
64013a8e233aaa42388c821f,,practice,,,,n,0.0,3.087,False,
64013a8e233aaa42388c821f,,,,,,,,,False,
64013a8e233aaa42388c821f,,practice,,,,n,1.0,1.434,False,
64013a8e233aaa42388c821f,,practice,,,,n,1.0,1.299,False,
64013a8e233aaa42388c821f,,practice,,,,b,0.0,1.371,False,
64013a8e233aaa42388c821f,,practice,,,,b,1.0,1.499,False,
64013a8e233aaa42388c821f,,practice,,,,b,1.0,2.984,False,
64013a8e233aaa42388c821f,,practice,,,,n,1.0,1.699,False,
64013a8e233aaa42388c821f,,practice,,,,b,1.0,2.164,False,
64013a8e233aaa42388c821f,,practice,,,,n,1.0,1.281,False,
64013a8e233aaa42388c821f,,practice,,,,b,1.0,2.13,False,
64013a8e233aaa42388c821f,,practice,,,,n,1.0,1.183,False,
64013a8e233aaa42388c821f,,practice,,,,b,1.0,2.846,False,
64013a8e233aaa42388c821f,,practice,,,,b,1.0,1.983,False,
64013a8e233aaa42388c821f,,test,100.0,Different,AD100,n,1.0,2.457,False,
64013a8e233aaa42388c821f,,test,50.0,Same,AD50,b,1.0,2.449,False,
64013a8e233aaa42388c821f,,test,0.0,Different,AD0,n,1.0,1.515,False,
64013a8e233aaa42388c821f,,test,100.0,Same,AD100,b,1.0,2.228,False,
64013a8e233aaa42388c821f,,test,50.0,Same,AD50,b,1.0,2.383,False,
64013a8e233aaa42388c821f,,test,100.0,Different,AD100,n,1.0,3.695,False,
64013a8e233aaa42388c821f,,test,150.0,Different,AD150,n,1.0,2.961,False,
64013a8e233aaa42388c821f,,test,50.0,Same,AD50,b,1.0,3.144,False,
64013a8e233aaa42388c821f,,test,150.0,Different,AD150,b,0.0,2.728,False,
64013a8e233aaa42388c821f,,test,150.0,Same,AD150,n,0.0,3.477,False,
64013a8e233aaa42388c821f,,test,100.0,Same,AD100,b,1.0,3.311,False,
64013a8e233aaa42388c821f,,test,150.0,Same,AD150,b,1.0,2.829,False,
64013a8e233aaa42388c821f,,test,100.0,Different,AD100,n,1.0,3.533,False,
64013a8e233aaa42388c821f,,test,100.0,Same,AD100,b,1.0,2.495,False,
64013a8e233aaa42388c821f,,test,50.0,Different,AD50,n,1.0,2.913,False,
64013a8e233aaa42388c821f,,test,100.0,Different,AD100,b,0.0,4.51,False,
64013a8e233aaa42388c821f,,test,0.0,Same,AD0,b,1.0,2.678,False,
64013a8e233aaa42388c821f,,test,50.0,Same,AD50,b,1.0,2.062,False,
64013a8e233aaa42388c821f,,test,150.0,Same,AD150,b,1.0,2.145,False,
64013a8e233aaa42388c821f,,test,150.0,Different,AD150,n,1.0,3.281,False,
64013a8e233aaa42388c821f,,test,50.0,Same,AD50,b,1.0,2.796,False,
64013a8e233aaa42388c821f,,test,0.0,Different,AD0,n,1.0,2.195,False,
64013a8e233aaa42388c821f,,test,100.0,Different,AD100,n,1.0,3.417,False,
64013a8e233aaa42388c821f,,test,100.0,Different,AD100,n,1.0,1.845,False,
64013a8e233aaa42388c821f,,test,0.0,Same,AD0,b,1.0,2.396,False,
64013a8e233aaa42388c821f,,test,0.0,Different,AD0,n,1.0,1.98,False,
64013a8e233aaa42388c821f,,test,50.0,Different,AD50,n,1.0,3.078,False,
64013a8e233aaa42388c821f,,test,0.0,Different,AD0,b,0.0,1.394,False,
64013a8e233aaa42388c821f,,test,0.0,Same,AD0,b,1.0,1.096,False,
64013a8e233aaa42388c821f,,test,0.0,Same,AD0,b,1.0,1.015,False,
64013a8e233aaa42388c821f,,test,0.0,Different,AD0,n,1.0,1.099,False,
64013a8e233aaa42388c821f,,test,100.0,Same,AD100,b,1.0,4.282,False,
64013a8e233aaa42388c821f,,test,100.0,Same,AD100,b,1.0,3.414,False,
64013a8e233aaa42388c821f,,test,50.0,Same,AD50,b,1.0,1.812,False,
64013a8e233aaa42388c821f,,test,50.0,Different,AD50,n,1.0,0.998,False,
64013a8e233aaa42388c821f,,test,50.0,Different,AD50,n,1.0,1.014,False,
64013a8e233aaa42388c821f,,test,100.0,Same,AD100,b,1.0,1.965,False,
64013a8e233aaa42388c821f,,test,150.0,Different,AD150,n,1.0,3.563,False,
64013a8e233aaa42388c821f,,test,50.0,Different,AD50,b,0.0,2.13,False,
64013a8e233aaa42388c821f,,test,0.0,Same,AD0,b,1.0,1.43,False,
64013a8e233aaa42388c821f,,test,150.0,Same,AD150,b,1.0,1.896,False,
64013a8e233aaa42388c821f,,test,50.0,Different,AD50,n,1.0,3.277,False,
64013a8e233aaa42388c821f,,test,150.0,Same,AD150,b,1.0,2.449,False,
64013a8e233aaa42388c821f,,test,0.0,Different,AD0,n,1.0,3.711,False,
64013a8e233aaa42388c821f,,test,0.0,Same,AD0,b,1.0,1.196,False,
64013a8e233aaa42388c821f,,test,150.0,Same,AD150,b,1.0,2.463,False,
64013a8e233aaa42388c821f,,test,150.0,Different,AD150,n,1.0,1.929,False,
64013a8e233aaa42388c821f,,test,150.0,Different,AD150,n,1.0,2.396,False,
64013a8e233aaa42388c821f,,test,0.0,Same,AD0,b,1.0,1.182,False,
64013a8e233aaa42388c821f,,test,100.0,Different,AD100,n,1.0,2.582,False,
64013a8e233aaa42388c821f,,test,0.0,Same,AD0,b,1.0,1.13,False,
64013a8e233aaa42388c821f,,test,150.0,Different,AD150,n,1.0,1.847,False,
64013a8e233aaa42388c821f,,test,50.0,Same,AD50,b,1.0,1.896,False,
64013a8e233aaa42388c821f,,test,100.0,Same,AD100,b,1.0,2.65,False,
64013a8e233aaa42388c821f,,test,50.0,Same,AD50,b,1.0,4.858,True,RT outlier (> 2.5SD) in AD50
64013a8e233aaa42388c821f,,test,0.0,Different,AD0,n,1.0,2.149,False,
64013a8e233aaa42388c821f,,test,100.0,Same,AD100,b,1.0,3.801,False,
64013a8e233aaa42388c821f,,test,0.0,Different,AD0,n,1.0,1.296,False,
64013a8e233aaa42388c821f,,test,0.0,Same,AD0,b,1.0,1.63,False,
64013a8e233aaa42388c821f,,test,0.0,Different,AD0,n,1.0,4.91,True,RT outlier (> 2.5SD) in AD0
64013a8e233aaa42388c821f,,test,50.0,Different,AD50,n,1.0,2.717,False,
64013a8e233aaa42388c821f,,test,0.0,Same,AD0,b,1.0,1.029,False,
64013a8e233aaa42388c821f,,test,100.0,Different,AD100,n,1.0,4.592,False,
64013a8e233aaa42388c821f,,test,100.0,Same,AD100,b,1.0,2.709,False,
64013a8e233aaa42388c821f,,test,50.0,Same,AD50,b,1.0,3.793,False,
64013a8e233aaa42388c821f,,test,50.0,Different,AD50,n,1.0,1.746,False,
64013a8e233aaa42388c821f,,test,150.0,Same,AD150,b,1.0,3.894,False,
64013a8e233aaa42388c821f,,test,50.0,Different,AD50,b,0.0,3.694,False,
64013a8e233aaa42388c821f,,test,150.0,Different,AD150,n,1.0,4.728,False,
64013a8e233aaa42388c821f,,test,100.0,Different,AD100,n,1.0,3.23,False,
64013a8e233aaa42388c821f,,test,100.0,Same,AD100,b,1.0,2.528,False,
64013a8e233aaa42388c821f,,test,150.0,Same,AD150,b,1.0,5.774,True,RT outlier (> 2.5SD) in AD150
64013a8e233aaa42388c821f,,test,150.0,Different,AD150,n,1.0,2.263,False,
64013a8e233aaa42388c821f,,test,0.0,Different,AD0,n,1.0,3.576,False,
64013a8e233aaa42388c821f,,test,150.0,Different,AD150,n,1.0,4.814,False,
64013a8e233aaa42388c821f,,test,150.0,Same,AD150,b,1.0,2.929,False,
64013a8e233aaa42388c821f,,test,100.0,Different,AD100,n,1.0,3.446,False,
64013a8e233aaa42388c821f,,test,150.0,Different,AD150,n,1.0,2.627,False,
64013a8e233aaa42388c821f,,test,100.0,Same,AD100,b,1.0,1.496,False,
64013a8e233aaa42388c821f,,test,50.0,Different,AD50,n,1.0,2.469,False,
64013a8e233aaa42388c821f,,test,50.0,Different,AD50,n,1.0,2.611,False,
64013a8e233aaa42388c821f,,test,100.0,Same,AD100,b,1.0,3.395,False,
64013a8e233aaa42388c821f,,test,50.0,Same,AD50,n,0.0,1.762,False,
64013a8e233aaa42388c821f,,test,100.0,Different,AD100,n,1.0,2.979,False,
64013a8e233aaa42388c821f,,test,0.0,Same,AD0,b,1.0,2.133,False,
64013a8e233aaa42388c821f,,test,50.0,Different,AD50,n,1.0,1.612,False,
64013a8e233aaa42388c821f,,test,50.0,Same,AD50,b,1.0,2.696,False,
64013a8e233aaa42388c821f,,test,150.0,Same,AD150,b,1.0,2.199,False,
64013a8e233aaa42388c821f,,test,0.0,Different,AD0,n,1.0,1.946,False,
64013a8e233aaa42388c821f,,test,50.0,Same,AD50,b,1.0,3.194,False,
64013a8e233aaa42388c821f,,test,150.0,Same,AD150,b,1.0,3.413,False,
64013a8e233aaa42388c821f,,test,150.0,Different,AD150,n,1.0,1.678,False,
64013a8e233aaa42388c821f,,test,100.0,Different,AD100,b,0.0,2.328,False,
64013a8e233aaa42388c821f,,test,0.0,Different,AD0,n,1.0,1.579,False,
64013a8e233aaa42388c821f,,test,150.0,Same,AD150,b,1.0,3.861,False,
64013a8e233aaa42388c821f,,test,0.0,Same,AD0,b,1.0,1.862,False,
64013a8e233aaa42388c821f,,,,,,,,,False,
64013a8e233aaa42388c821f,,,,,,,,,False,
6754d95f656838004bc46eed,2.0,practice,,,,b,1.0,7.4192,False,
6754d95f656838004bc46eed,,practice,,,,b,0.0,2.8756,False,
6754d95f656838004bc46eed,,practice,,,,n,0.0,3.4228,False,
6754d95f656838004bc46eed,,,,,,,,,False,
6754d95f656838004bc46eed,,practice,,,,n,1.0,5.9937,False,
6754d95f656838004bc46eed,,practice,,,,b,0.0,5.1101,False,
6754d95f656838004bc46eed,,practice,,,,b,1.0,3.2985,False,
6754d95f656838004bc46eed,,practice,,,,b,1.0,4.2377,False,
6754d95f656838004bc46eed,,practice,,,,b,1.0,4.7097,False,
6754d95f656838004bc46eed,,practice,,,,n,1.0,4.1045,False,
6754d95f656838004bc46eed,,practice,,,,n,1.0,2.9642,False,
6754d95f656838004bc46eed,,practice,,,,b,0.0,6.1272,False,
6754d95f656838004bc46eed,,,,,,,,,False,
6754d95f656838004bc46eed,,practice,,,,b,1.0,4.473,False,
6754d95f656838004bc46eed,,practice,,,,b,1.0,5.4282,False,
6754d95f656838004bc46eed,,practice,,,,b,1.0,2.4458,False,
6754d95f656838004bc46eed,,practice,,,,b,0.0,5.778,False,
6754d95f656838004bc46eed,,practice,,,,b,1.0,4.0274,False,
6754d95f656838004bc46eed,,practice,,,,n,0.0,3.7063,False,
6754d95f656838004bc46eed,,practice,,,,n,1.0,4.3269,False,
6754d95f656838004bc46eed,,practice,,,,n,1.0,3.6942,False,
6754d95f656838004bc46eed,,practice,,,,n,1.0,5.6102,False,
6754d95f656838004bc46eed,,practice,,,,n,1.0,6.1259,False,
6754d95f656838004bc46eed,,practice,,,,b,0.0,4.1997,False,
6754d95f656838004bc46eed,,practice,,,,b,1.0,5.6936,False,
6754d95f656838004bc46eed,,test,150.0,Different,AD150,n,1.0,5.5844,False,
6754d95f656838004bc46eed,,test,50.0,Same,AD50,b,1.0,4.1271,False,
6754d95f656838004bc46eed,,test,50.0,Same,AD50,b,1.0,2.0394,False,
6754d95f656838004bc46eed,,test,50.0,Different,AD50,n,1.0,2.4797,False,
6754d95f656838004bc46eed,,test,0.0,Same,AD0,b,1.0,2.3041,False,
6754d95f656838004bc46eed,,test,0.0,Same,AD0,b,1.0,1.5897,False,
6754d95f656838004bc46eed,,,150.0,Different,AD150,,,,False,
6754d95f656838004bc46eed,,test,150.0,Same,AD150,b,1.0,4.7718,False,
6754d95f656838004bc46eed,,test,0.0,Different,AD0,n,1.0,5.1935,False,
6754d95f656838004bc46eed,,test,0.0,Same,AD0,b,1.0,2.4453,False,
6754d95f656838004bc46eed,,,150.0,Same,AD150,,,,False,
6754d95f656838004bc46eed,,test,0.0,Different,AD0,b,0.0,3.9261,False,
6754d95f656838004bc46eed,,test,50.0,Different,AD50,b,0.0,5.9769,False,
6754d95f656838004bc46eed,,test,0.0,Same,AD0,b,1.0,1.126,False,
6754d95f656838004bc46eed,,test,100.0,Same,AD100,b,1.0,4.9648,False,
6754d95f656838004bc46eed,,test,100.0,Different,AD100,n,1.0,5.4945,False,
6754d95f656838004bc46eed,,test,100.0,Different,AD100,n,1.0,3.8482,False,
6754d95f656838004bc46eed,,test,50.0,Different,AD50,b,0.0,6.0781,False,
6754d95f656838004bc46eed,,test,50.0,Same,AD50,b,1.0,2.8159,False,
6754d95f656838004bc46eed,,test,0.0,Different,AD0,n,1.0,3.1654,False,
6754d95f656838004bc46eed,,test,100.0,Different,AD100,n,1.0,6.5257,False,
6754d95f656838004bc46eed,,test,100.0,Same,AD100,b,1.0,2.3117,False,
6754d95f656838004bc46eed,,test,0.0,Different,AD0,n,1.0,4.3424,False,
6754d95f656838004bc46eed,,,50.0,Different,AD50,,,,False,
6754d95f656838004bc46eed,,test,100.0,Same,AD100,n,0.0,0.1136,True,RT < 200ms
6754d95f656838004bc46eed,,test,0.0,Different,AD0,n,1.0,4.23,False,
6754d95f656838004bc46eed,,test,100.0,Same,AD100,b,1.0,2.3303,False,
6754d95f656838004bc46eed,,test,0.0,Same,AD0,b,1.0,1.376,False,
6754d95f656838004bc46eed,,test,150.0,Different,AD150,n,1.0,4.7276,False,
6754d95f656838004bc46eed,,test,50.0,Same,AD50,b,1.0,5.815,False,
6754d95f656838004bc46eed,,test,100.0,Different,AD100,b,0.0,6.7101,False,
6754d95f656838004bc46eed,,test,150.0,Different,AD150,n,1.0,6.4768,False,
6754d95f656838004bc46eed,,test,0.0,Same,AD0,b,1.0,1.8822,False,
6754d95f656838004bc46eed,,test,50.0,Same,AD50,b,1.0,3.8483,False,
6754d95f656838004bc46eed,,test,150.0,Different,AD150,n,1.0,3.0431,False,
6754d95f656838004bc46eed,,test,150.0,Same,AD150,b,1.0,6.2926,False,
6754d95f656838004bc46eed,,test,150.0,Same,AD150,b,1.0,3.5274,False,
6754d95f656838004bc46eed,,test,50.0,Different,AD50,n,1.0,7.1139,False,
6754d95f656838004bc46eed,,test,0.0,Different,AD0,n,1.0,5.1467,False,
6754d95f656838004bc46eed,,test,150.0,Same,AD150,b,1.0,2.8946,False,
6754d95f656838004bc46eed,,test,150.0,Same,AD150,b,1.0,3.2058,False,
6754d95f656838004bc46eed,,test,50.0,Same,AD50,b,1.0,1.7077,False,
6754d95f656838004bc46eed,,test,150.0,Different,AD150,n,1.0,4.3603,False,
6754d95f656838004bc46eed,,test,50.0,Different,AD50,n,1.0,5.5771,False,
6754d95f656838004bc46eed,,test,100.0,Same,AD100,b,1.0,3.4929,False,
6754d95f656838004bc46eed,,test,100.0,Different,AD100,b,0.0,6.5609,False,
6754d95f656838004bc46eed,,test,100.0,Same,AD100,b,1.0,5.014,False,
6754d95f656838004bc46eed,,test,100.0,Different,AD100,n,1.0,5.1123,False,
6754d95f656838004bc46eed,,test,100.0,Same,AD100,b,1.0,3.7106,False,
6754d95f656838004bc46eed,,test,0.0,Different,AD0,n,1.0,5.9594,False,
6754d95f656838004bc46eed,,test,100.0,Same,AD100,b,1.0,3.7317,False,
6754d95f656838004bc46eed,,test,150.0,Different,AD150,n,1.0,4.1443,False,
6754d95f656838004bc46eed,,test,0.0,Same,AD0,b,1.0,1.2621,False,
6754d95f656838004bc46eed,,,50.0,Different,AD50,,,,False,
6754d95f656838004bc46eed,,test,100.0,Same,AD100,n,0.0,0.0281,True,RT < 200ms
6754d95f656838004bc46eed,,test,50.0,Same,AD50,b,1.0,4.2132,False,
6754d95f656838004bc46eed,,test,100.0,Different,AD100,n,1.0,4.6598,False,
6754d95f656838004bc46eed,,test,50.0,Same,AD50,b,1.0,1.2271,False,
6754d95f656838004bc46eed,,test,150.0,Same,AD150,b,1.0,5.523,False,
6754d95f656838004bc46eed,,test,0.0,Same,AD0,b,1.0,1.1154,False,
6754d95f656838004bc46eed,,test,0.0,Different,AD0,n,1.0,2.5776,False,
6754d95f656838004bc46eed,,test,0.0,Different,AD0,b,0.0,5.6937,False,
6754d95f656838004bc46eed,,test,100.0,Different,AD100,n,1.0,7.3543,False,
6754d95f656838004bc46eed,,test,100.0,Same,AD100,b,1.0,7.4094,False,
6754d95f656838004bc46eed,,test,150.0,Same,AD150,b,1.0,4.3924,False,
6754d95f656838004bc46eed,,test,50.0,Different,AD50,n,1.0,2.7798,False,
6754d95f656838004bc46eed,,test,150.0,Same,AD150,b,1.0,4.2106,False,
6754d95f656838004bc46eed,,test,100.0,Different,AD100,n,1.0,2.1289,False,
6754d95f656838004bc46eed,,test,50.0,Same,AD50,b,1.0,2.1115,False,
6754d95f656838004bc46eed,,test,150.0,Different,AD150,n,1.0,3.2432,False,
6754d95f656838004bc46eed,,test,50.0,Same,AD50,b,1.0,3.6597,False,
6754d95f656838004bc46eed,,test,0.0,Same,AD0,b,1.0,0.855,False,
6754d95f656838004bc46eed,,test,150.0,Different,AD150,n,1.0,6.093,False,
6754d95f656838004bc46eed,,test,150.0,Different,AD150,n,1.0,6.4932,False,
6754d95f656838004bc46eed,,test,100.0,Different,AD100,n,1.0,4.7101,False,
6754d95f656838004bc46eed,,test,150.0,Same,AD150,b,1.0,3.0609,False,
6754d95f656838004bc46eed,,test,50.0,Different,AD50,n,1.0,4.2429,False,
6754d95f656838004bc46eed,,test,50.0,Same,AD50,b,1.0,2.1289,False,
6754d95f656838004bc46eed,,test,0.0,Different,AD0,b,0.0,1.0591,False,
6754d95f656838004bc46eed,,test,150.0,Different,AD150,n,1.0,3.2431,False,
6754d95f656838004bc46eed,,test,150.0,Different,AD150,n,1.0,2.6586,False,
6754d95f656838004bc46eed,,test,0.0,Same,AD0,b,1.0,0.9091,False,
6754d95f656838004bc46eed,,test,100.0,Same,AD100,b,1.0,1.6491,False,
6754d95f656838004bc46eed,,test,50.0,Different,AD50,n,1.0,1.3422,False,
6754d95f656838004bc46eed,,test,0.0,Same,AD0,b,1.0,0.9278,False,
6754d95f656838004bc46eed,,test,100.0,Different,AD100,n,1.0,3.3099,False,
6754d95f656838004bc46eed,,test,0.0,Same,AD0,b,1.0,1.1098,False,
6754d95f656838004bc46eed,,test,100.0,Different,AD100,n,1.0,3.7634,False,
6754d95f656838004bc46eed,,test,100.0,Same,AD100,b,1.0,2.6599,False,
6754d95f656838004bc46eed,,test,50.0,Different,AD50,n,1.0,3.825,False,
6754d95f656838004bc46eed,,test,150.0,Same,AD150,n,0.0,1.8528,False,
6754d95f656838004bc46eed,,test,50.0,Different,AD50,n,1.0,1.6089,False,
6754d95f656838004bc46eed,,test,0.0,Different,AD0,b,0.0,0.9971,False,
6754d95f656838004bc46eed,,test,0.0,Different,AD0,n,1.0,5.7833,False,
6754d95f656838004bc46eed,,test,150.0,Same,AD150,b,1.0,2.8586,False,
6754d95f656838004bc46eed,,test,50.0,Same,AD50,b,1.0,4.2088,False,
6754d95f656838004bc46eed,,,,,,,,,False,
6754d95f656838004bc46eed,,,,,,,,,False,
6754d95f656838004bc46eed,,,,,,,,,False,
6754d95f656838004bc46eed,,,,,,,,,False,
6754d95f656838004bc46eed,,,,,,,,,False,
6754d95f656838004bc46eed,,,,,,,,,False,
6754d95f656838004bc46eed,,,,,,,,,False,
6754d95f656838004bc46eed,,,,,,,,,False,
6754d95f656838004bc46eed,,,,,,,,,False,
6754d95f656838004bc46eed,,,,,,,,,False,
6754d95f656838004bc46eed,,,,,,,,,False,
6754d95f656838004bc46eed,,,,,,,,,False,
6754d95f656838004bc46eed,,,,,,,,,False,
6754d95f656838004bc46eed,,,,,,,,,False,
6754d95f656838004bc46eed,,,,,,,,,False,
6754d95f656838004bc46eed,,,,,,,,,False,
6754d95f656838004bc46eed,,,,,,,,,False,
6754d95f656838004bc46eed,,,,,,,,,False,
6754d95f656838004bc46eed,,,,,,,,,False,
6754d95f656838004bc46eed,,,,,,,,,False,
6754d95f656838004bc46eed,,,,,,,,,False,
6754d95f656838004bc46eed,,,,,,,,,False,
6754d95f656838004bc46eed,,,,,,,,,False,
6754d95f656838004bc46eed,,,,,,,,,False,
6754d95f656838004bc46eed,,,,,,,,,False,
6754d95f656838004bc46eed,,,,,,,,,False,
6754d95f656838004bc46eed,,,,,,,,,False,
6754d95f656838004bc46eed,,,,,,,,,False,
6754d95f656838004bc46eed,,,,,,,,,False,
6754d95f656838004bc46eed,,,,,,,,,False,
6754d95f656838004bc46eed,,,,,,,,,False,
6754d95f656838004bc46eed,,,,,,,,,False,
6754d95f656838004bc46eed,,,,,,,,,False,
6754d95f656838004bc46eed,,,,,,,,,False,
6754d95f656838004bc46eed,,,,,,,,,False,
6754d95f656838004bc46eed,,,,,,,,,False,
6754d95f656838004bc46eed,,,,,,,,,False,
6754d95f656838004bc46eed,,,,,,,,,False,
6754d95f656838004bc46eed,,,,,,,,,False,
6754d95f656838004bc46eed,,,,,,,,,False,
6754d95f656838004bc46eed,,,,,,,,,False,
6754d95f656838004bc46eed,,,,,,,,,False,
6754d95f656838004bc46eed,,,,,,,,,False,
6754d95f656838004bc46eed,,,,,,,,,False,
6754d95f656838004bc46eed,,,,,,,,,False,
6754d95f656838004bc46eed,,,,,,,,,False,
6754d95f656838004bc46eed,,,,,,,,,False,
6754d95f656838004bc46eed,,,,,,,,,False,
6754d95f656838004bc46eed,,,,,,,,,False,
6754d95f656838004bc46eed,,,,,,,,,False,
6754d95f656838004bc46eed,,,,,,,,,False,
6754d95f656838004bc46eed,,,,,,,,,False,
6754d95f656838004bc46eed,,,,,,,,,False,
6754d95f656838004bc46eed,,,,,,,,,False,
6754d95f656838004bc46eed,,,,,,,,,False,
6754d95f656838004bc46eed,,,,,,,,,False,
6754d95f656838004bc46eed,,,,,,,,,False,
6754d95f656838004bc46eed,,,,,,,,,False,
6754d95f656838004bc46eed,,,,,,,,,False,
6754d95f656838004bc46eed,,,,,,,,,False,
6754d95f656838004bc46eed,,,,,,,,,False,
6754d95f656838004bc46eed,,,,,,,,,False,
6754d95f656838004bc46eed,,,,,,,,,False,
6754d95f656838004bc46eed,,,,,,,,,False,
6754d95f656838004bc46eed,,,,,,,,,False,
6754d95f656838004bc46eed,,,,,,,,,False,
6754d95f656838004bc46eed,,,,,,,,,False,
6754d95f656838004bc46eed,,,,,,,,,False,
6754d95f656838004bc46eed,,,,,,,,,False,
6754d95f656838004bc46eed,,,,,,,,,False,
6754d95f656838004bc46eed,,,,,,,,,False,
6754d95f656838004bc46eed,,,,,,,,,False,
6754d95f656838004bc46eed,,,,,,,,,False,
6754d95f656838004bc46eed,,,,,,,,,False,
6754d95f656838004bc46eed,,,,,,,,,False,
6754d95f656838004bc46eed,,,,,,,,,False,
6754d95f656838004bc46eed,,,,,,,,,False,
6754d95f656838004bc46eed,,,,,,,,,False,
6754d95f656838004bc46eed,,,,,,,,,False,
6754d95f656838004bc46eed,,,,,,,,,False,
6754d95f656838004bc46eed,,,,,,,,,False,
6754d95f656838004bc46eed,,,,,,,,,False,
6754d95f656838004bc46eed,,,,,,,,,False,
6754d95f656838004bc46eed,,,,,,,,,False,
6754d95f656838004bc46eed,,,,,,,,,False,
6754d95f656838004bc46eed,,,,,,,,,False,
6754d95f656838004bc46eed,,,,,,,,,False,
6754d95f656838004bc46eed,,,,,,,,,False,
6754d95f656838004bc46eed,,,,,,,,,False,
6754d95f656838004bc46eed,,,,,,,,,False,
6754d95f656838004bc46eed,,,,,,,,,False,
6754d95f656838004bc46eed,,,,,,,,,False,
6754d95f656838004bc46eed,,,,,,,,,False,
6754d95f656838004bc46eed,,,,,,,,,False,
6754d95f656838004bc46eed,,,,,,,,,False,
6754d95f656838004bc46eed,,,,,,,,,False,
6754d95f656838004bc46eed,,,,,,,,,False,
6754d95f656838004bc46eed,,,,,,,,,False,
6754d95f656838004bc46eed,,,,,,,,,False,
6754d95f656838004bc46eed,,,,,,,,,False,
6754d95f656838004bc46eed,,,,,,,,,False,
6754d95f656838004bc46eed,,,,,,,,,False,
6754d95f656838004bc46eed,,,,,,,,,False,
6754d95f656838004bc46eed,,,,,,,,,False,
6754d95f656838004bc46eed,,,,,,,,,False,
6754d95f656838004bc46eed,,,,,,,,,False,
6754d95f656838004bc46eed,,,,,,,,,False,
6754d95f656838004bc46eed,,,,,,,,,False,
6754d95f656838004bc46eed,,,,,,,,,False,
6754d95f656838004bc46eed,,,,,,,,,False,
6754d95f656838004bc46eed,,,,,,,,,False,
6754d95f656838004bc46eed,,,,,,,,,False,
6754d95f656838004bc46eed,,,,,,,,,False,
6754d95f656838004bc46eed,,,,,,,,,False,
6754d95f656838004bc46eed,,,,,,,,,False,
6754d95f656838004bc46eed,,,,,,,,,False,
6754d95f656838004bc46eed,,,,,,,,,False,
6754d95f656838004bc46eed,,,,,,,,,False,
6754d95f656838004bc46eed,,,,,,,,,False,
6754d95f656838004bc46eed,,,,,,,,,False,
6754d95f656838004bc46eed,,,,,,,,,False,
6754d95f656838004bc46eed,,,,,,,,,False,
6754d95f656838004bc46eed,,,,,,,,,False,
6754d95f656838004bc46eed,,,,,,,,,False,
6754d95f656838004bc46eed,,,,,,,,,False,
6754d95f656838004bc46eed,,,,,,,,,False,
6754d95f656838004bc46eed,,,,,,,,,False,
6754d95f656838004bc46eed,,,,,,,,,False,
6754d95f656838004bc46eed,,,,,,,,,False,
6754d95f656838004bc46eed,,,,,,,,,False,
6754d95f656838004bc46eed,,,,,,,,,False,
6754d95f656838004bc46eed,,,,,,,,,False,
6754d95f656838004bc46eed,,,,,,,,,False,
6754d95f656838004bc46eed,,,,,,,,,False,
6754d95f656838004bc46eed,,,,,,,,,False,
6754d95f656838004bc46eed,,,,,,,,,False,
6754d95f656838004bc46eed,,,,,,,,,False,
6754d95f656838004bc46eed,,,,,,,,,False,
6754d95f656838004bc46eed,,,,,,,,,False,
6754d95f656838004bc46eed,,,,,,,,,False,
6754d95f656838004bc46eed,,,,,,,,,False,
6754d95f656838004bc46eed,,,,,,,,,False,
6754d95f656838004bc46eed,,,,,,,,,False,
6754d95f656838004bc46eed,,,,,,,,,False,
6754d95f656838004bc46eed,,,,,,,,,False,
6754d95f656838004bc46eed,,,,,,,,,False,
6754d95f656838004bc46eed,,,,,,,,,False,
6754d95f656838004bc46eed,,,,,,,,,False,
6754d95f656838004bc46eed,,,,,,,,,False,
6754d95f656838004bc46eed,,,,,,,,,False,
675ed2ef6a6a6ae2ce682c30,1.0,,,,,,,,False,
675ed2ef6a6a6ae2ce682c30,,,,,,,,,False,
675ed2ef6a6a6ae2ce682c30,,,,,,,,,False,
675ed2ef6a6a6ae2ce682c30,,,,,,,,,False,
675ed2ef6a6a6ae2ce682c30,,,,,,,,,False,
675ed2ef6a6a6ae2ce682c30,,,,,,,,,False,
675ed2ef6a6a6ae2ce682c30,,,,,,,,,False,
675ed2ef6a6a6ae2ce682c30,,,,,,,,,False,
675ed2ef6a6a6ae2ce682c30,,,,,,,,,False,
675ed2ef6a6a6ae2ce682c30,,,,,,,,,False,
675ed2ef6a6a6ae2ce682c30,,,,,,,,,False,
675ed2ef6a6a6ae2ce682c30,,,,,,,,,False,
675ed2ef6a6a6ae2ce682c30,,,,,,,,,False,
675ed2ef6a6a6ae2ce682c30,,,,,,,,,False,
675ed2ef6a6a6ae2ce682c30,,,,,,,,,False,
675ed2ef6a6a6ae2ce682c30,,,,,,,,,False,
675ed2ef6a6a6ae2ce682c30,,,,,,,,,False,
675ed2ef6a6a6ae2ce682c30,,,,,,,,,False,
675ed2ef6a6a6ae2ce682c30,,,,,,,,,False,
675ed2ef6a6a6ae2ce682c30,,,,,,,,,False,
675ed2ef6a6a6ae2ce682c30,,,,,,,,,False,
675ed2ef6a6a6ae2ce682c30,,,,,,,,,False,
675ed2ef6a6a6ae2ce682c30,,,,,,,,,False,
675ed2ef6a6a6ae2ce682c30,,,,,,,,,False,
675ed2ef6a6a6ae2ce682c30,,,,,,,,,False,
675ed2ef6a6a6ae2ce682c30,,,,,,,,,False,
675ed2ef6a6a6ae2ce682c30,,,,,,,,,False,
675ed2ef6a6a6ae2ce682c30,,,,,,,,,False,
675ed2ef6a6a6ae2ce682c30,,,,,,,,,False,
675ed2ef6a6a6ae2ce682c30,,,,,,,,,False,
675ed2ef6a6a6ae2ce682c30,,,,,,,,,False,
675ed2ef6a6a6ae2ce682c30,,,,,,,,,False,
675ed2ef6a6a6ae2ce682c30,,,,,,,,,False,
675ed2ef6a6a6ae2ce682c30,,,,,,,,,False,
675ed2ef6a6a6ae2ce682c30,,,,,,,,,False,
675ed2ef6a6a6ae2ce682c30,,,,,,,,,False,
675ed2ef6a6a6ae2ce682c30,,,,,,,,,False,
675ed2ef6a6a6ae2ce682c30,,,,,,,,,False,
675ed2ef6a6a6ae2ce682c30,,,,,,,,,False,
675ed2ef6a6a6ae2ce682c30,,,,,,,,,False,
675ed2ef6a6a6ae2ce682c30,,,,,,,,,False,
675ed2ef6a6a6ae2ce682c30,,,,,,,,,False,
675ed2ef6a6a6ae2ce682c30,,,,,,,,,False,
675ed2ef6a6a6ae2ce682c30,,,,,,,,,False,
675ed2ef6a6a6ae2ce682c30,,,,,,,,,False,
675ed2ef6a6a6ae2ce682c30,,,,,,,,,False,
675ed2ef6a6a6ae2ce682c30,,,,,,,,,False,
675ed2ef6a6a6ae2ce682c30,,,,,,,,,False,
675ed2ef6a6a6ae2ce682c30,,,,,,,,,False,
675ed2ef6a6a6ae2ce682c30,,,,,,,,,False,
675ed2ef6a6a6ae2ce682c30,,,,,,,,,False,
675ed2ef6a6a6ae2ce682c30,,,,,,,,,False,
675ed2ef6a6a6ae2ce682c30,,,,,,,,,False,
675ed2ef6a6a6ae2ce682c30,,,,,,,,,False,
675ed2ef6a6a6ae2ce682c30,,,,,,,,,False,
675ed2ef6a6a6ae2ce682c30,,,,,,,,,False,
675ed2ef6a6a6ae2ce682c30,,,,,,,,,False,
675ed2ef6a6a6ae2ce682c30,,,,,,,,,False,
675ed2ef6a6a6ae2ce682c30,,,,,,,,,False,
675ed2ef6a6a6ae2ce682c30,,,,,,,,,False,
675ed2ef6a6a6ae2ce682c30,,,,,,,,,False,
675ed2ef6a6a6ae2ce682c30,,,,,,,,,False,
675ed2ef6a6a6ae2ce682c30,,,,,,,,,False,
675ed2ef6a6a6ae2ce682c30,,,,,,,,,False,
675ed2ef6a6a6ae2ce682c30,,,,,,,,,False,
675ed2ef6a6a6ae2ce682c30,,,,,,,,,False,
675ed2ef6a6a6ae2ce682c30,,,,,,,,,False,
675ed2ef6a6a6ae2ce682c30,,,,,,,,,False,
675ed2ef6a6a6ae2ce682c30,,,,,,,,,False,
675ed2ef6a6a6ae2ce682c30,,,,,,,,,False,
675ed2ef6a6a6ae2ce682c30,,,,,,,,,False,
675ed2ef6a6a6ae2ce682c30,,,,,,,,,False,
675ed2ef6a6a6ae2ce682c30,,,,,,,,,False,
675ed2ef6a6a6ae2ce682c30,,,,,,,,,False,
675ed2ef6a6a6ae2ce682c30,,,,,,,,,False,
675ed2ef6a6a6ae2ce682c30,,,,,,,,,False,
675ed2ef6a6a6ae2ce682c30,,,,,,,,,False,
675ed2ef6a6a6ae2ce682c30,,,,,,,,,False,
675ed2ef6a6a6ae2ce682c30,,,,,,,,,False,
675ed2ef6a6a6ae2ce682c30,,,,,,,,,False,
675ed2ef6a6a6ae2ce682c30,,,,,,,,,False,
675ed2ef6a6a6ae2ce682c30,,,,,,,,,False,
675ed2ef6a6a6ae2ce682c30,,,,,,,,,False,
675ed2ef6a6a6ae2ce682c30,,,,,,,,,False,
675ed2ef6a6a6ae2ce682c30,,,,,,,,,False,
675ed2ef6a6a6ae2ce682c30,,,,,,,,,False,
675ed2ef6a6a6ae2ce682c30,,,,,,,,,False,
675ed2ef6a6a6ae2ce682c30,,,,,,,,,False,
675ed2ef6a6a6ae2ce682c30,,,,,,,,,False,
675ed2ef6a6a6ae2ce682c30,,,,,,,,,False,
675ed2ef6a6a6ae2ce682c30,,,,,,,,,False,
675ed2ef6a6a6ae2ce682c30,,,,,,,,,False,
675ed2ef6a6a6ae2ce682c30,,,,,,,,,False,
675ed2ef6a6a6ae2ce682c30,,,,,,,,,False,
675ed2ef6a6a6ae2ce682c30,,,,,,,,,False,
675ed2ef6a6a6ae2ce682c30,,,,,,,,,False,
675ed2ef6a6a6ae2ce682c30,,,,,,,,,False,
675ed2ef6a6a6ae2ce682c30,,,,,,,,,False,
675ed2ef6a6a6ae2ce682c30,,,,,,,,,False,
675ed2ef6a6a6ae2ce682c30,,,,,,,,,False,
675ed2ef6a6a6ae2ce682c30,,,,,,,,,False,
675ed2ef6a6a6ae2ce682c30,,,,,,,,,False,
675ed2ef6a6a6ae2ce682c30,,,,,,,,,False,
675ed2ef6a6a6ae2ce682c30,,,,,,,,,False,
675ed2ef6a6a6ae2ce682c30,,,,,,,,,False,
675ed2ef6a6a6ae2ce682c30,,,,,,,,,False,
675ed2ef6a6a6ae2ce682c30,,,,,,,,,False,
675ed2ef6a6a6ae2ce682c30,,,,,,,,,False,
675ed2ef6a6a6ae2ce682c30,,,,,,,,,False,
675ed2ef6a6a6ae2ce682c30,,,,,,,,,False,
675ed2ef6a6a6ae2ce682c30,,,,,,,,,False,
675ed2ef6a6a6ae2ce682c30,,,,,,,,,False,
675ed2ef6a6a6ae2ce682c30,,,,,,,,,False,
675ed2ef6a6a6ae2ce682c30,,,,,,,,,False,
675ed2ef6a6a6ae2ce682c30,,,,,,,,,False,
675ed2ef6a6a6ae2ce682c30,,,,,,,,,False,
675ed2ef6a6a6ae2ce682c30,,,,,,,,,False,
675ed2ef6a6a6ae2ce682c30,,,,,,,,,False,
675ed2ef6a6a6ae2ce682c30,,,,,,,,,False,
675ed2ef6a6a6ae2ce682c30,,,,,,,,,False,
675ed2ef6a6a6ae2ce682c30,,,,,,,,,False,
675ed2ef6a6a6ae2ce682c30,,,,,,,,,False,
675ed2ef6a6a6ae2ce682c30,,,,,,,,,False,
675ed2ef6a6a6ae2ce682c30,,,,,,,,,False,
675ed2ef6a6a6ae2ce682c30,,,,,,,,,False,
675ed2ef6a6a6ae2ce682c30,,,,,,,,,False,
675ed2ef6a6a6ae2ce682c30,,,,,,,,,False,
675ed2ef6a6a6ae2ce682c30,,,,,,,,,False,
675ed2ef6a6a6ae2ce682c30,,,,,,,,,False,
675ed2ef6a6a6ae2ce682c30,,,,,,,,,False,
675ed2ef6a6a6ae2ce682c30,,,,,,,,,False,
675ed2ef6a6a6ae2ce682c30,,,,,,,,,False,
675ed2ef6a6a6ae2ce682c30,,,,,,,,,False,
675ed2ef6a6a6ae2ce682c30,,,,,,,,,False,
675ed2ef6a6a6ae2ce682c30,,,,,,,,,False,
675ed2ef6a6a6ae2ce682c30,,,,,,,,,False,
675ed2ef6a6a6ae2ce682c30,,,,,,,,,False,
675ed2ef6a6a6ae2ce682c30,,,,,,,,,False,
675ed2ef6a6a6ae2ce682c30,,,,,,,,,False,
675ed2ef6a6a6ae2ce682c30,,,,,,,,,False,
675ed2ef6a6a6ae2ce682c30,,,,,,,,,False,
675ed2ef6a6a6ae2ce682c30,,,,,,,,,False,
675ed2ef6a6a6ae2ce682c30,,,,,,,,,False,
675ed2ef6a6a6ae2ce682c30,,,,,,,,,False,
675ed2ef6a6a6ae2ce682c30,,,,,,,,,False,
675ed2ef6a6a6ae2ce682c30,,,,,,,,,False,
675ed2ef6a6a6ae2ce682c30,,,,,,,,,False,
675ed2ef6a6a6ae2ce682c30,,,,,,,,,False,
675ed2ef6a6a6ae2ce682c30,,,,,,,,,False,
675ed2ef6a6a6ae2ce682c30,,practice,,,,b,1.0,6.754,False,
675ed2ef6a6a6ae2ce682c30,,practice,,,,n,1.0,3.924,False,
675ed2ef6a6a6ae2ce682c30,,practice,,,,b,0.0,1.852,False,
675ed2ef6a6a6ae2ce682c30,,practice,,,,b,1.0,2.074,False,
675ed2ef6a6a6ae2ce682c30,,practice,,,,n,0.0,4.15,False,
675ed2ef6a6a6ae2ce682c30,,practice,,,,b,0.0,1.912,False,
675ed2ef6a6a6ae2ce682c30,,practice,,,,b,0.0,1.845,False,
675ed2ef6a6a6ae2ce682c30,,practice,,,,b,1.0,2.274,False,
675ed2ef6a6a6ae2ce682c30,,practice,,,,b,0.0,1.735,False,
675ed2ef6a6a6ae2ce682c30,,practice,,,,b,0.0,1.634,False,
675ed2ef6a6a6ae2ce682c30,,practice,,,,b,1.0,2.685,False,
675ed2ef6a6a6ae2ce682c30,,practice,,,,n,0.0,3.043,False,
675ed2ef6a6a6ae2ce682c30,,,,,,,,,False,
675ed2ef6a6a6ae2ce682c30,,practice,,,,b,1.0,1.858,False,
675ed2ef6a6a6ae2ce682c30,,practice,,,,n,1.0,4.095,False,
675ed2ef6a6a6ae2ce682c30,,practice,,,,b,1.0,3.895,False,
675ed2ef6a6a6ae2ce682c30,,practice,,,,b,0.0,6.623,False,
675ed2ef6a6a6ae2ce682c30,,practice,,,,n,0.0,1.186,False,
675ed2ef6a6a6ae2ce682c30,,practice,,,,b,0.0,1.021,False,
675ed2ef6a6a6ae2ce682c30,,practice,,,,n,0.0,0.828,False,
675ed2ef6a6a6ae2ce682c30,,practice,,,,b,0.0,0.878,False,
675ed2ef6a6a6ae2ce682c30,,practice,,,,n,1.0,0.915,False,
675ed2ef6a6a6ae2ce682c30,,practice,,,,b,1.0,2.302,False,
675ed2ef6a6a6ae2ce682c30,,practice,,,,b,1.0,4.029,False,
675ed2ef6a6a6ae2ce682c30,,practice,,,,b,0.0,5.639,False,
675ed2ef6a6a6ae2ce682c30,,,,,,,,,False,
675ed2ef6a6a6ae2ce682c30,,practice,,,,b,1.0,3.268,False,
675ed2ef6a6a6ae2ce682c30,,practice,,,,b,0.0,1.315,False,
675ed2ef6a6a6ae2ce682c30,,practice,,,,b,1.0,1.328,False,
675ed2ef6a6a6ae2ce682c30,,practice,,,,b,0.0,1.306,False,
675ed2ef6a6a6ae2ce682c30,,practice,,,,b,1.0,2.922,False,
675ed2ef6a6a6ae2ce682c30,,practice,,,,n,0.0,1.197,False,
675ed2ef6a6a6ae2ce682c30,,practice,,,,b,0.0,1.793,False,
675ed2ef6a6a6ae2ce682c30,,practice,,,,b,1.0,0.928,False,
675ed2ef6a6a6ae2ce682c30,,practice,,,,b,0.0,5.719,False,
675ed2ef6a6a6ae2ce682c30,,practice,,,,b,0.0,0.861,False,
675ed2ef6a6a6ae2ce682c30,,practice,,,,b,1.0,0.453,False,
675ed2ef6a6a6ae2ce682c30,,practice,,,,b,0.0,0.768,False,
675ed2ef6a6a6ae2ce682c30,,,,,,,,,False,
675ed2ef6a6a6ae2ce682c30,,practice,,,,b,1.0,0.669,False,
675ed2ef6a6a6ae2ce682c30,,practice,,,,n,1.0,0.569,False,
675ed2ef6a6a6ae2ce682c30,,practice,,,,b,1.0,0.845,False,
675ed2ef6a6a6ae2ce682c30,,practice,,,,b,0.0,3.031,False,
675ed2ef6a6a6ae2ce682c30,,practice,,,,n,0.0,1.581,False,
675ed2ef6a6a6ae2ce682c30,,practice,,,,b,1.0,0.329,False,
675ed2ef6a6a6ae2ce682c30,,practice,,,,b,0.0,1.328,False,
675ed2ef6a6a6ae2ce682c30,,practice,,,,b,0.0,3.52,False,
675ed2ef6a6a6ae2ce682c30,,practice,,,,n,0.0,0.283,False,
675ed2ef6a6a6ae2ce682c30,,practice,,,,b,0.0,0.288,False,
675ed2ef6a6a6ae2ce682c30,,practice,,,,n,0.0,0.54,False,
675ed2ef6a6a6ae2ce682c30,,practice,,,,b,0.0,0.7,False,
675ed2ef6a6a6ae2ce682c30,,,,,,,,,False,
675ed2ef6a6a6ae2ce682c30,,practice,,,,b,1.0,3.134,False,
675ed2ef6a6a6ae2ce682c30,,practice,,,,b,1.0,5.446,False,
675ed2ef6a6a6ae2ce682c30,,practice,,,,n,1.0,2.463,False,
675ed2ef6a6a6ae2ce682c30,,,,,,,,,False,
675ed2ef6a6a6ae2ce682c30,,practice,,,,b,0.0,4.669,False,
675ed2ef6a6a6ae2ce682c30,,practice,,,,n,0.0,5.688,False,
675ed2ef6a6a6ae2ce682c30,,practice,,,,b,0.0,3.879,False,
675ed2ef6a6a6ae2ce682c30,,practice,,,,b,1.0,6.368,False,
675ed2ef6a6a6ae2ce682c30,,practice,,,,n,0.0,3.283,False,
675ed2ef6a6a6ae2ce682c30,,practice,,,,b,1.0,5.363,False,
675ed2ef6a6a6ae2ce682c30,,practice,,,,n,1.0,2.413,False,
675ed2ef6a6a6ae2ce682c30,,practice,,,,b,0.0,3.029,False,
675ed2ef6a6a6ae2ce682c30,,,,,,,,,False,
675ed2ef6a6a6ae2ce682c30,,practice,,,,b,1.0,3.752,False,
675ed2ef6a6a6ae2ce682c30,,practice,,,,b,0.0,0.729,False,
675ed2ef6a6a6ae2ce682c30,,practice,,,,n,1.0,2.524,False,
675ed2ef6a6a6ae2ce682c30,,practice,,,,n,0.0,1.295,False,
675ed2ef6a6a6ae2ce682c30,,practice,,,,n,0.0,1.23,False,
675ed2ef6a6a6ae2ce682c30,,practice,,,,b,1.0,4.312,False,
675ed2ef6a6a6ae2ce682c30,,practice,,,,n,1.0,1.295,False,
675ed2ef6a6a6ae2ce682c30,,practice,,,,b,1.0,1.501,False,
675ed2ef6a6a6ae2ce682c30,,practice,,,,b,1.0,0.679,False,
675ed2ef6a6a6ae2ce682c30,,practice,,,,b,0.0,0.87,False,
675ed2ef6a6a6ae2ce682c30,,practice,,,,n,1.0,0.891,False,
675ed2ef6a6a6ae2ce682c30,,practice,,,,n,1.0,1.062,False,
675ed2ef6a6a6ae2ce682c30,,,,,,,,,False,
675ed2ef6a6a6ae2ce682c30,,practice,,,,b,1.0,5.045,False,
675ed2ef6a6a6ae2ce682c30,,practice,,,,n,1.0,0.831,False,
675ed2ef6a6a6ae2ce682c30,,practice,,,,b,0.0,2.329,False,
675ed2ef6a6a6ae2ce682c30,,practice,,,,n,0.0,5.045,False,
675ed2ef6a6a6ae2ce682c30,,practice,,,,n,1.0,6.788,False,
675ed2ef6a6a6ae2ce682c30,,practice,,,,b,1.0,3.323,False,
675ed2ef6a6a6ae2ce682c30,,practice,,,,n,1.0,1.458,False,
675ed2ef6a6a6ae2ce682c30,,practice,,,,b,1.0,0.986,False,
675ed2ef6a6a6ae2ce682c30,,practice,,,,b,1.0,0.764,False,
675ed2ef6a6a6ae2ce682c30,,practice,,,,b,0.0,0.302,False,
675ed2ef6a6a6ae2ce682c30,,practice,,,,n,1.0,1.203,False,
675ed2ef6a6a6ae2ce682c30,,practice,,,,n,0.0,0.483,False,
675ed2ef6a6a6ae2ce682c30,,,,,,,,,False,
675ed2ef6a6a6ae2ce682c30,,practice,,,,b,1.0,1.42,False,
675ed2ef6a6a6ae2ce682c30,,practice,,,,n,1.0,2.358,False,
675ed2ef6a6a6ae2ce682c30,,practice,,,,b,1.0,2.828,False,
675ed2ef6a6a6ae2ce682c30,,practice,,,,n,1.0,2.054,False,
675ed2ef6a6a6ae2ce682c30,,practice,,,,b,0.0,4.112,False,
675ed2ef6a6a6ae2ce682c30,,practice,,,,n,1.0,4.217,False,
675ed2ef6a6a6ae2ce682c30,,practice,,,,b,1.0,5.131,False,
675ed2ef6a6a6ae2ce682c30,,practice,,,,n,0.0,2.453,False,
675ed2ef6a6a6ae2ce682c30,,practice,,,,n,1.0,2.671,False,
675ed2ef6a6a6ae2ce682c30,,,,,,,,,False,
675ed2ef6a6a6ae2ce682c30,,practice,,,,b,1.0,1.006,False,
675ed2ef6a6a6ae2ce682c30,,practice,,,,n,1.0,3.022,False,
675ed2ef6a6a6ae2ce682c30,,test,100.0,Same,AD100,b,1.0,4.916,True,RT outlier (> 2.5SD) in AD100
675ed2ef6a6a6ae2ce682c30,,test,50.0,Same,AD50,n,0.0,3.985,True,RT outlier (> 2.5SD) in AD50
675ed2ef6a6a6ae2ce682c30,,test,100.0,Same,AD100,b,1.0,3.474,False,
675ed2ef6a6a6ae2ce682c30,,test,100.0,Different,AD100,n,1.0,1.026,False,
675ed2ef6a6a6ae2ce682c30,,test,150.0,Same,AD150,b,1.0,1.599,True,RT outlier (> 2.5SD) in AD150
675ed2ef6a6a6ae2ce682c30,,test,50.0,Different,AD50,n,1.0,4.691,True,RT outlier (> 2.5SD) in AD50
675ed2ef6a6a6ae2ce682c30,,test,0.0,Different,AD0,b,0.0,0.962,False,
675ed2ef6a6a6ae2ce682c30,,test,0.0,Same,AD0,b,1.0,2.063,True,RT outlier (> 2.5SD) in AD0
675ed2ef6a6a6ae2ce682c30,,test,0.0,Same,AD0,b,1.0,1.598,True,RT outlier (> 2.5SD) in AD0
675ed2ef6a6a6ae2ce682c30,,test,100.0,Different,AD100,n,1.0,2.983,False,
675ed2ef6a6a6ae2ce682c30,,test,150.0,Same,AD150,b,1.0,0.776,False,
675ed2ef6a6a6ae2ce682c30,,test,50.0,Different,AD50,n,1.0,0.251,False,
675ed2ef6a6a6ae2ce682c30,,test,50.0,Same,AD50,b,1.0,0.242,False,
675ed2ef6a6a6ae2ce682c30,,test,0.0,Different,AD0,n,1.0,0.2,False,
675ed2ef6a6a6ae2ce682c30,,test,50.0,Different,AD50,b,0.0,0.292,False,
675ed2ef6a6a6ae2ce682c30,,test,50.0,Same,AD50,b,1.0,0.218,False,
675ed2ef6a6a6ae2ce682c30,,test,0.0,Same,AD0,b,1.0,0.277,False,
675ed2ef6a6a6ae2ce682c30,,test,0.0,Different,AD0,n,1.0,0.245,False,
675ed2ef6a6a6ae2ce682c30,,test,100.0,Different,AD100,b,0.0,0.292,False,
675ed2ef6a6a6ae2ce682c30,,test,50.0,Different,AD50,n,1.0,0.244,False,
675ed2ef6a6a6ae2ce682c30,,test,50.0,Same,AD50,b,1.0,0.259,False,
675ed2ef6a6a6ae2ce682c30,,test,0.0,Same,AD0,n,0.0,0.225,False,
675ed2ef6a6a6ae2ce682c30,,test,50.0,Different,AD50,b,0.0,0.209,False,
675ed2ef6a6a6ae2ce682c30,,test,50.0,Same,AD50,b,1.0,0.237,False,
675ed2ef6a6a6ae2ce682c30,,test,150.0,Different,AD150,n,1.0,0.207,False,
675ed2ef6a6a6ae2ce682c30,,test,100.0,Same,AD100,b,1.0,0.229,False,
675ed2ef6a6a6ae2ce682c30,,test,150.0,Different,AD150,n,1.0,0.21,False,
675ed2ef6a6a6ae2ce682c30,,test,100.0,Same,AD100,n,0.0,0.214,False,
675ed2ef6a6a6ae2ce682c30,,test,0.0,Different,AD0,b,0.0,0.22,False,
675ed2ef6a6a6ae2ce682c30,,test,0.0,Same,AD0,b,1.0,0.251,False,
675ed2ef6a6a6ae2ce682c30,,test,0.0,Different,AD0,n,1.0,0.241,False,
675ed2ef6a6a6ae2ce682c30,,test,150.0,Same,AD150,b,1.0,0.267,False,
675ed2ef6a6a6ae2ce682c30,,test,50.0,Different,AD50,n,1.0,0.259,False,
675ed2ef6a6a6ae2ce682c30,,test,100.0,Same,AD100,b,1.0,0.198,True,RT < 200ms
675ed2ef6a6a6ae2ce682c30,,test,50.0,Same,AD50,n,0.0,0.245,False,
675ed2ef6a6a6ae2ce682c30,,test,100.0,Different,AD100,b,0.0,0.242,False,
675ed2ef6a6a6ae2ce682c30,,test,100.0,Different,AD100,n,1.0,0.227,False,
675ed2ef6a6a6ae2ce682c30,,test,0.0,Same,AD0,n,0.0,0.242,False,
675ed2ef6a6a6ae2ce682c30,,test,150.0,Different,AD150,b,0.0,0.224,False,
675ed2ef6a6a6ae2ce682c30,,test,150.0,Different,AD150,b,0.0,0.266,False,
675ed2ef6a6a6ae2ce682c30,,test,0.0,Different,AD0,n,1.0,0.236,False,
675ed2ef6a6a6ae2ce682c30,,test,150.0,Same,AD150,n,0.0,0.261,False,
675ed2ef6a6a6ae2ce682c30,,test,100.0,Same,AD100,b,1.0,0.243,False,
675ed2ef6a6a6ae2ce682c30,,test,150.0,Different,AD150,b,0.0,0.251,False,
675ed2ef6a6a6ae2ce682c30,,test,150.0,Same,AD150,n,0.0,0.261,False,
675ed2ef6a6a6ae2ce682c30,,test,150.0,Different,AD150,n,1.0,0.251,False,
675ed2ef6a6a6ae2ce682c30,,test,100.0,Different,AD100,b,0.0,0.275,False,
675ed2ef6a6a6ae2ce682c30,,test,150.0,Same,AD150,b,1.0,0.269,False,
675ed2ef6a6a6ae2ce682c30,,test,100.0,Different,AD100,n,1.0,0.242,False,
675ed2ef6a6a6ae2ce682c30,,test,0.0,Different,AD0,n,1.0,0.279,False,
675ed2ef6a6a6ae2ce682c30,,test,0.0,Same,AD0,b,1.0,0.23,False,
675ed2ef6a6a6ae2ce682c30,,test,150.0,Different,AD150,b,0.0,0.246,False,
675ed2ef6a6a6ae2ce682c30,,test,0.0,Same,AD0,n,0.0,0.231,False,
675ed2ef6a6a6ae2ce682c30,,test,50.0,Different,AD50,n,1.0,0.225,False,
675ed2ef6a6a6ae2ce682c30,,test,100.0,Same,AD100,b,1.0,0.227,False,
675ed2ef6a6a6ae2ce682c30,,test,50.0,Different,AD50,b,0.0,0.243,False,
675ed2ef6a6a6ae2ce682c30,,test,100.0,Same,AD100,n,0.0,0.25,False,
675ed2ef6a6a6ae2ce682c30,,test,0.0,Different,AD0,n,1.0,0.291,False,
675ed2ef6a6a6ae2ce682c30,,test,150.0,Different,AD150,n,1.0,0.226,False,
675ed2ef6a6a6ae2ce682c30,,test,50.0,Same,AD50,b,1.0,0.216,False,
675ed2ef6a6a6ae2ce682c30,,test,150.0,Different,AD150,n,1.0,0.343,False,
675ed2ef6a6a6ae2ce682c30,,test,100.0,Same,AD100,b,1.0,0.243,False,
675ed2ef6a6a6ae2ce682c30,,test,150.0,Same,AD150,b,1.0,0.262,False,
675ed2ef6a6a6ae2ce682c30,,test,0.0,Different,AD0,b,0.0,0.253,False,
675ed2ef6a6a6ae2ce682c30,,test,0.0,Different,AD0,n,1.0,0.259,False,
675ed2ef6a6a6ae2ce682c30,,test,150.0,Same,AD150,n,0.0,0.241,False,
675ed2ef6a6a6ae2ce682c30,,test,150.0,Same,AD150,b,1.0,0.242,False,
675ed2ef6a6a6ae2ce682c30,,test,100.0,Different,AD100,b,0.0,0.279,False,
675ed2ef6a6a6ae2ce682c30,,test,50.0,Same,AD50,b,1.0,0.275,False,
675ed2ef6a6a6ae2ce682c30,,test,50.0,Different,AD50,n,1.0,0.241,False,
675ed2ef6a6a6ae2ce682c30,,test,0.0,Different,AD0,n,1.0,0.251,False,
675ed2ef6a6a6ae2ce682c30,,test,150.0,Same,AD150,b,1.0,0.22,False,
675ed2ef6a6a6ae2ce682c30,,test,100.0,Same,AD100,b,1.0,0.297,False,
675ed2ef6a6a6ae2ce682c30,,test,50.0,Different,AD50,n,1.0,0.227,False,
675ed2ef6a6a6ae2ce682c30,,test,50.0,Same,AD50,n,0.0,0.246,False,
675ed2ef6a6a6ae2ce682c30,,test,0.0,Same,AD0,b,1.0,0.25,False,
675ed2ef6a6a6ae2ce682c30,,test,50.0,Same,AD50,b,1.0,0.245,False,
675ed2ef6a6a6ae2ce682c30,,test,100.0,Different,AD100,n,1.0,0.247,False,
675ed2ef6a6a6ae2ce682c30,,test,50.0,Different,AD50,n,1.0,0.249,False,
675ed2ef6a6a6ae2ce682c30,,test,150.0,Different,AD150,b,0.0,0.242,False,
675ed2ef6a6a6ae2ce682c30,,test,0.0,Same,AD0,b,1.0,0.286,False,
675ed2ef6a6a6ae2ce682c30,,test,50.0,Same,AD50,b,1.0,0.274,False,
675ed2ef6a6a6ae2ce682c30,,test,50.0,Different,AD50,n,1.0,0.221,False,
675ed2ef6a6a6ae2ce682c30,,test,0.0,Same,AD0,n,0.0,0.257,False,
675ed2ef6a6a6ae2ce682c30,,test,0.0,Same,AD0,n,0.0,0.236,False,
675ed2ef6a6a6ae2ce682c30,,test,150.0,Different,AD150,b,0.0,0.268,False,
675ed2ef6a6a6ae2ce682c30,,test,0.0,Different,AD0,b,0.0,0.242,False,
675ed2ef6a6a6ae2ce682c30,,test,100.0,Different,AD100,b,0.0,0.259,False,
675ed2ef6a6a6ae2ce682c30,,test,150.0,Same,AD150,n,0.0,0.233,False,
675ed2ef6a6a6ae2ce682c30,,test,150.0,Same,AD150,n,0.0,0.246,False,
675ed2ef6a6a6ae2ce682c30,,test,150.0,Different,AD150,n,1.0,0.275,False,
675ed2ef6a6a6ae2ce682c30,,test,100.0,Different,AD100,b,0.0,0.25,False,
675ed2ef6a6a6ae2ce682c30,,test,100.0,Different,AD100,b,0.0,0.279,False,
675ed2ef6a6a6ae2ce682c30,,test,100.0,Same,AD100,b,1.0,0.258,False,
675ed2ef6a6a6ae2ce682c30,,test,50.0,Same,AD50,n,0.0,0.23,False,
675ed2ef6a6a6ae2ce682c30,,test,100.0,Same,AD100,n,0.0,0.242,False,
675ed2ef6a6a6ae2ce682c30,,,,,,,,,False,
675ed2ef6a6a6ae2ce682c30,,,,,,,,,False,
5e76d2652d882b2481d65066,2.0,practice,,,,b,1.0,2.6912,False,
5e76d2652d882b2481d65066,,practice,,,,b,1.0,4.0471,False,
5e76d2652d882b2481d65066,,practice,,,,n,1.0,4.267,False,
5e76d2652d882b2481d65066,,practice,,,,n,1.0,2.5619,False,
5e76d2652d882b2481d65066,,practice,,,,b,1.0,6.0132,False,
5e76d2652d882b2481d65066,,,,,,,,,False,
5e76d2652d882b2481d65066,,practice,,,,b,1.0,2.1138,False,
5e76d2652d882b2481d65066,,practice,,,,n,1.0,2.5563,False,
5e76d2652d882b2481d65066,,practice,,,,b,1.0,2.4877,False,
5e76d2652d882b2481d65066,,practice,,,,n,1.0,2.2288,False,
5e76d2652d882b2481d65066,,practice,,,,n,1.0,3.7709,False,
5e76d2652d882b2481d65066,,practice,,,,n,1.0,2.497,False,
5e76d2652d882b2481d65066,,test,0.0,Same,AD0,b,1.0,2.8518,False,
5e76d2652d882b2481d65066,,test,0.0,Same,AD0,b,1.0,2.4302,False,
5e76d2652d882b2481d65066,,test,0.0,Same,AD0,b,1.0,2.1798,False,
5e76d2652d882b2481d65066,,test,50.0,Different,AD50,n,1.0,2.3141,False,
5e76d2652d882b2481d65066,,test,50.0,Same,AD50,b,1.0,2.762,False,
5e76d2652d882b2481d65066,,test,150.0,Different,AD150,n,1.0,2.7232,False,
5e76d2652d882b2481d65066,,test,150.0,Different,AD150,n,1.0,2.3339,False,
5e76d2652d882b2481d65066,,test,100.0,Same,AD100,b,1.0,3.8385,False,
5e76d2652d882b2481d65066,,test,50.0,Different,AD50,n,1.0,3.0813,False,
5e76d2652d882b2481d65066,,test,150.0,Same,AD150,n,0.0,3.225,False,
5e76d2652d882b2481d65066,,test,50.0,Different,AD50,n,1.0,2.5006,False,
5e76d2652d882b2481d65066,,test,150.0,Different,AD150,n,1.0,6.0004,True,RT outlier (> 2.5SD) in AD150
5e76d2652d882b2481d65066,,test,100.0,Same,AD100,b,1.0,3.3806,False,
5e76d2652d882b2481d65066,,test,100.0,Different,AD100,n,1.0,4.5516,False,
5e76d2652d882b2481d65066,,test,50.0,Same,AD50,b,1.0,2.1707,False,
5e76d2652d882b2481d65066,,test,0.0,Different,AD0,n,1.0,1.7948,False,
5e76d2652d882b2481d65066,,test,0.0,Different,AD0,n,1.0,3.2571,False,
5e76d2652d882b2481d65066,,test,150.0,Same,AD150,b,1.0,4.2569,False,
5e76d2652d882b2481d65066,,test,100.0,Different,AD100,n,1.0,2.9637,False,
5e76d2652d882b2481d65066,,test,100.0,Different,AD100,n,1.0,3.941,False,
5e76d2652d882b2481d65066,,test,50.0,Same,AD50,b,1.0,3.187,False,
5e76d2652d882b2481d65066,,test,0.0,Different,AD0,n,1.0,1.78,False,
5e76d2652d882b2481d65066,,test,100.0,Same,AD100,b,1.0,3.9493,False,
5e76d2652d882b2481d65066,,test,150.0,Same,AD150,b,1.0,3.4578,False,
5e76d2652d882b2481d65066,,test,0.0,Same,AD0,b,1.0,2.4416,False,
5e76d2652d882b2481d65066,,test,0.0,Different,AD0,n,1.0,2.087,False,
5e76d2652d882b2481d65066,,test,0.0,Different,AD0,n,1.0,4.0251,False,
5e76d2652d882b2481d65066,,test,100.0,Same,AD100,b,1.0,2.1159,False,
5e76d2652d882b2481d65066,,test,0.0,Different,AD0,n,1.0,5.0293,True,RT outlier (> 2.5SD) in AD0
5e76d2652d882b2481d65066,,test,150.0,Different,AD150,n,1.0,2.7004,False,
5e76d2652d882b2481d65066,,test,150.0,Same,AD150,b,1.0,2.215,False,
5e76d2652d882b2481d65066,,test,50.0,Different,AD50,n,1.0,2.8241,False,
5e76d2652d882b2481d65066,,test,50.0,Same,AD50,b,1.0,2.499,False,
5e76d2652d882b2481d65066,,test,50.0,Different,AD50,n,1.0,1.993,False,
5e76d2652d882b2481d65066,,test,150.0,Same,AD150,b,1.0,2.4498,False,
5e76d2652d882b2481d65066,,test,50.0,Different,AD50,n,1.0,2.3346,False,
5e76d2652d882b2481d65066,,test,100.0,Different,AD100,n,1.0,4.9968,False,
5e76d2652d882b2481d65066,,test,50.0,Same,AD50,b,1.0,2.6289,False,
5e76d2652d882b2481d65066,,test,150.0,Different,AD150,b,0.0,1.9294,False,
5e76d2652d882b2481d65066,,test,100.0,Same,AD100,b,1.0,3.513,False,
5e76d2652d882b2481d65066,,test,0.0,Same,AD0,b,1.0,1.1508,False,
5e76d2652d882b2481d65066,,test,0.0,Same,AD0,b,1.0,3.5596,False,
5e76d2652d882b2481d65066,,test,100.0,Different,AD100,n,1.0,2.1473,False,
5e76d2652d882b2481d65066,,test,150.0,Different,AD150,n,1.0,2.1632,False,
5e76d2652d882b2481d65066,,test,100.0,Same,AD100,b,1.0,2.2449,False,
5e76d2652d882b2481d65066,,test,100.0,Different,AD100,n,1.0,3.869,False,
5e76d2652d882b2481d65066,,test,150.0,Same,AD150,b,1.0,3.0284,False,
5e76d2652d882b2481d65066,,test,50.0,Same,AD50,b,1.0,2.3954,False,
5e76d2652d882b2481d65066,,test,150.0,Same,AD150,n,0.0,3.2772,False,
5e76d2652d882b2481d65066,,test,150.0,Different,AD150,n,1.0,1.9959,False,
5e76d2652d882b2481d65066,,test,0.0,Different,AD0,n,1.0,1.4774,False,
5e76d2652d882b2481d65066,,test,150.0,Same,AD150,b,1.0,4.9839,False,
5e76d2652d882b2481d65066,,test,100.0,Same,AD100,b,1.0,2.311,False,
5e76d2652d882b2481d65066,,test,0.0,Same,AD0,b,1.0,2.8133,False,
5e76d2652d882b2481d65066,,test,150.0,Different,AD150,n,1.0,3.2944,False,
5e76d2652d882b2481d65066,,test,0.0,Different,AD0,n,1.0,2.6731,False,
5e76d2652d882b2481d65066,,test,0.0,Same,AD0,b,1.0,2.6614,False,
5e76d2652d882b2481d65066,,test,0.0,Same,AD0,b,1.0,1.6492,False,
5e76d2652d882b2481d65066,,test,100.0,Different,AD100,n,1.0,2.4242,False,
5e76d2652d882b2481d65066,,test,0.0,Same,AD0,b,1.0,2.8311,False,
5e76d2652d882b2481d65066,,test,150.0,Same,AD150,b,1.0,2.7741,False,
5e76d2652d882b2481d65066,,test,100.0,Different,AD100,n,1.0,4.4891,False,
5e76d2652d882b2481d65066,,test,150.0,Same,AD150,b,1.0,1.7139,False,
5e76d2652d882b2481d65066,,test,50.0,Different,AD50,n,1.0,4.2941,False,
5e76d2652d882b2481d65066,,test,50.0,Different,AD50,n,1.0,1.5814,False,
5e76d2652d882b2481d65066,,test,50.0,Different,AD50,n,1.0,2.2771,False,
5e76d2652d882b2481d65066,,test,100.0,Same,AD100,b,1.0,3.3426,False,
5e76d2652d882b2481d65066,,test,150.0,Different,AD150,n,1.0,2.2908,False,
5e76d2652d882b2481d65066,,test,50.0,Same,AD50,b,1.0,3.0466,False,
5e76d2652d882b2481d65066,,test,100.0,Different,AD100,n,1.0,4.7542,False,
5e76d2652d882b2481d65066,,test,150.0,Same,AD150,b,1.0,2.5099,False,
5e76d2652d882b2481d65066,,test,100.0,Different,AD100,n,1.0,4.8071,False,
5e76d2652d882b2481d65066,,test,100.0,Same,AD100,b,1.0,2.7946,False,
5e76d2652d882b2481d65066,,test,0.0,Same,AD0,b,1.0,3.0939,False,
5e76d2652d882b2481d65066,,test,50.0,Different,AD50,n,1.0,2.3102,False,
5e76d2652d882b2481d65066,,test,0.0,Different,AD0,n,1.0,1.9139,False,
5e76d2652d882b2481d65066,,test,150.0,Same,AD150,b,1.0,1.8603,False,
5e76d2652d882b2481d65066,,test,50.0,Different,AD50,n,1.0,1.9022,False,
5e76d2652d882b2481d65066,,test,0.0,Different,AD0,n,1.0,1.2275,False,
5e76d2652d882b2481d65066,,test,0.0,Same,AD0,b,1.0,3.5426,False,
5e76d2652d882b2481d65066,,test,50.0,Same,AD50,b,1.0,2.5093,False,
5e76d2652d882b2481d65066,,test,50.0,Different,AD50,n,1.0,3.7388,False,
5e76d2652d882b2481d65066,,test,0.0,Different,AD0,n,1.0,2.0913,False,
5e76d2652d882b2481d65066,,test,50.0,Same,AD50,b,1.0,2.213,False,
5e76d2652d882b2481d65066,,test,150.0,Different,AD150,n,1.0,2.2735,False,
5e76d2652d882b2481d65066,,test,100.0,Different,AD100,n,1.0,1.9448,False,
5e76d2652d882b2481d65066,,test,100.0,Same,AD100,b,1.0,3.1301,False,
5e76d2652d882b2481d65066,,test,50.0,Same,AD50,b,1.0,1.8948,False,
5e76d2652d882b2481d65066,,test,50.0,Same,AD50,b,1.0,1.5299,False,
5e76d2652d882b2481d65066,,test,150.0,Different,AD150,n,1.0,1.6668,False,
5e76d2652d882b2481d65066,,test,150.0,Different,AD150,n,1.0,1.6065,False,
5e76d2652d882b2481d65066,,test,50.0,Same,AD50,b,1.0,4.0519,False,
5e76d2652d882b2481d65066,,test,100.0,Same,AD100,b,1.0,3.3637,False,
5e76d2652d882b2481d65066,,test,100.0,Different,AD100,n,1.0,2.1123,False,
5e76d2652d882b2481d65066,,test,100.0,Same,AD100,b,1.0,3.236,False,
5e76d2652d882b2481d65066,,test,0.0,Different,AD0,n,1.0,2.2044,False,
5e76d2652d882b2481d65066,,,,,,,,,False,
5e76d2652d882b2481d65066,,,,,,,,,False,
5e76d2652d882b2481d65066,,,,,,,,,False,
5e76d2652d882b2481d65066,,,,,,,,,False,
5e76d2652d882b2481d65066,,,,,,,,,False,
5e76d2652d882b2481d65066,,,,,,,,,False,
5e76d2652d882b2481d65066,,,,,,,,,False,
5e76d2652d882b2481d65066,,,,,,,,,False,
5e76d2652d882b2481d65066,,,,,,,,,False,
5e76d2652d882b2481d65066,,,,,,,,,False,
5e76d2652d882b2481d65066,,,,,,,,,False,
5e76d2652d882b2481d65066,,,,,,,,,False,
5e76d2652d882b2481d65066,,,,,,,,,False,
5e76d2652d882b2481d65066,,,,,,,,,False,
5e76d2652d882b2481d65066,,,,,,,,,False,
5e76d2652d882b2481d65066,,,,,,,,,False,
5e76d2652d882b2481d65066,,,,,,,,,False,
5e76d2652d882b2481d65066,,,,,,,,,False,
5e76d2652d882b2481d65066,,,,,,,,,False,
5e76d2652d882b2481d65066,,,,,,,,,False,
5e76d2652d882b2481d65066,,,,,,,,,False,
5e76d2652d882b2481d65066,,,,,,,,,False,
5e76d2652d882b2481d65066,,,,,,,,,False,
5e76d2652d882b2481d65066,,,,,,,,,False,
5e76d2652d882b2481d65066,,,,,,,,,False,
5e76d2652d882b2481d65066,,,,,,,,,False,
5e76d2652d882b2481d65066,,,,,,,,,False,
5e76d2652d882b2481d65066,,,,,,,,,False,
5e76d2652d882b2481d65066,,,,,,,,,False,
5e76d2652d882b2481d65066,,,,,,,,,False,
5e76d2652d882b2481d65066,,,,,,,,,False,
5e76d2652d882b2481d65066,,,,,,,,,False,
5e76d2652d882b2481d65066,,,,,,,,,False,
5e76d2652d882b2481d65066,,,,,,,,,False,
5e76d2652d882b2481d65066,,,,,,,,,False,
5e76d2652d882b2481d65066,,,,,,,,,False,
5e76d2652d882b2481d65066,,,,,,,,,False,
5e76d2652d882b2481d65066,,,,,,,,,False,
5e76d2652d882b2481d65066,,,,,,,,,False,
5e76d2652d882b2481d65066,,,,,,,,,False,
5e76d2652d882b2481d65066,,,,,,,,,False,
5e76d2652d882b2481d65066,,,,,,,,,False,
5e76d2652d882b2481d65066,,,,,,,,,False,
5e76d2652d882b2481d65066,,,,,,,,,False,
5e76d2652d882b2481d65066,,,,,,,,,False,
5e76d2652d882b2481d65066,,,,,,,,,False,
5e76d2652d882b2481d65066,,,,,,,,,False,
5e76d2652d882b2481d65066,,,,,,,,,False,
5e76d2652d882b2481d65066,,,,,,,,,False,
5e76d2652d882b2481d65066,,,,,,,,,False,
5e76d2652d882b2481d65066,,,,,,,,,False,
5e76d2652d882b2481d65066,,,,,,,,,False,
5e76d2652d882b2481d65066,,,,,,,,,False,
5e76d2652d882b2481d65066,,,,,,,,,False,
5e76d2652d882b2481d65066,,,,,,,,,False,
5e76d2652d882b2481d65066,,,,,,,,,False,
5e76d2652d882b2481d65066,,,,,,,,,False,
5e76d2652d882b2481d65066,,,,,,,,,False,
5e76d2652d882b2481d65066,,,,,,,,,False,
5e76d2652d882b2481d65066,,,,,,,,,False,
5e76d2652d882b2481d65066,,,,,,,,,False,
5e76d2652d882b2481d65066,,,,,,,,,False,
5e76d2652d882b2481d65066,,,,,,,,,False,
5e76d2652d882b2481d65066,,,,,,,,,False,
5e76d2652d882b2481d65066,,,,,,,,,False,
5e76d2652d882b2481d65066,,,,,,,,,False,
5e76d2652d882b2481d65066,,,,,,,,,False,
5e76d2652d882b2481d65066,,,,,,,,,False,
5e76d2652d882b2481d65066,,,,,,,,,False,
5e76d2652d882b2481d65066,,,,,,,,,False,
5e76d2652d882b2481d65066,,,,,,,,,False,
5e76d2652d882b2481d65066,,,,,,,,,False,
5e76d2652d882b2481d65066,,,,,,,,,False,
5e76d2652d882b2481d65066,,,,,,,,,False,
5e76d2652d882b2481d65066,,,,,,,,,False,
5e76d2652d882b2481d65066,,,,,,,,,False,
5e76d2652d882b2481d65066,,,,,,,,,False,
5e76d2652d882b2481d65066,,,,,,,,,False,
5e76d2652d882b2481d65066,,,,,,,,,False,
5e76d2652d882b2481d65066,,,,,,,,,False,
5e76d2652d882b2481d65066,,,,,,,,,False,
5e76d2652d882b2481d65066,,,,,,,,,False,
5e76d2652d882b2481d65066,,,,,,,,,False,
5e76d2652d882b2481d65066,,,,,,,,,False,
5e76d2652d882b2481d65066,,,,,,,,,False,
5e76d2652d882b2481d65066,,,,,,,,,False,
5e76d2652d882b2481d65066,,,,,,,,,False,
5e76d2652d882b2481d65066,,,,,,,,,False,
5e76d2652d882b2481d65066,,,,,,,,,False,
5e76d2652d882b2481d65066,,,,,,,,,False,
5e76d2652d882b2481d65066,,,,,,,,,False,
5e76d2652d882b2481d65066,,,,,,,,,False,
5e76d2652d882b2481d65066,,,,,,,,,False,
5e76d2652d882b2481d65066,,,,,,,,,False,
5e76d2652d882b2481d65066,,,,,,,,,False,
5e76d2652d882b2481d65066,,,,,,,,,False,
5e76d2652d882b2481d65066,,,,,,,,,False,
5e76d2652d882b2481d65066,,,,,,,,,False,
5e76d2652d882b2481d65066,,,,,,,,,False,
5e76d2652d882b2481d65066,,,,,,,,,False,
5e76d2652d882b2481d65066,,,,,,,,,False,
5e76d2652d882b2481d65066,,,,,,,,,False,
5e76d2652d882b2481d65066,,,,,,,,,False,
5e76d2652d882b2481d65066,,,,,,,,,False,
5e76d2652d882b2481d65066,,,,,,,,,False,
5e76d2652d882b2481d65066,,,,,,,,,False,
5e76d2652d882b2481d65066,,,,,,,,,False,
5e76d2652d882b2481d65066,,,,,,,,,False,
5e76d2652d882b2481d65066,,,,,,,,,False,
5e76d2652d882b2481d65066,,,,,,,,,False,
5e76d2652d882b2481d65066,,,,,,,,,False,
5e76d2652d882b2481d65066,,,,,,,,,False,
5e76d2652d882b2481d65066,,,,,,,,,False,
5e76d2652d882b2481d65066,,,,,,,,,False,
5e76d2652d882b2481d65066,,,,,,,,,False,
5e76d2652d882b2481d65066,,,,,,,,,False,
5e76d2652d882b2481d65066,,,,,,,,,False,
5e76d2652d882b2481d65066,,,,,,,,,False,
5e76d2652d882b2481d65066,,,,,,,,,False,
5e76d2652d882b2481d65066,,,,,,,,,False,
5e76d2652d882b2481d65066,,,,,,,,,False,
5e76d2652d882b2481d65066,,,,,,,,,False,
5e76d2652d882b2481d65066,,,,,,,,,False,
5e76d2652d882b2481d65066,,,,,,,,,False,
5e76d2652d882b2481d65066,,,,,,,,,False,
5e76d2652d882b2481d65066,,,,,,,,,False,
5e76d2652d882b2481d65066,,,,,,,,,False,
5e76d2652d882b2481d65066,,,,,,,,,False,
5e76d2652d882b2481d65066,,,,,,,,,False,
5e76d2652d882b2481d65066,,,,,,,,,False,
5e76d2652d882b2481d65066,,,,,,,,,False,
5e76d2652d882b2481d65066,,,,,,,,,False,
5e76d2652d882b2481d65066,,,,,,,,,False,
5e76d2652d882b2481d65066,,,,,,,,,False,
5e76d2652d882b2481d65066,,,,,,,,,False,
5e76d2652d882b2481d65066,,,,,,,,,False,
5e76d2652d882b2481d65066,,,,,,,,,False,
5e76d2652d882b2481d65066,,,,,,,,,False,
5e76d2652d882b2481d65066,,,,,,,,,False,
5e76d2652d882b2481d65066,,,,,,,,,False,
5e76d2652d882b2481d65066,,,,,,,,,False,
5e76d2652d882b2481d65066,,,,,,,,,False,
5e76d2652d882b2481d65066,,,,,,,,,False,
5e76d2652d882b2481d65066,,,,,,,,,False,
5e76d2652d882b2481d65066,,,,,,,,,False,
5e76d2652d882b2481d65066,,,,,,,,,False,
5e76d2652d882b2481d65066,,,,,,,,,False,
5e76d2652d882b2481d65066,,,,,,,,,False,
5e76d2652d882b2481d65066,,,,,,,,,False,
5e76d2652d882b2481d65066,,,,,,,,,False,
671469967e2a4f2e612e3846,2.0,practice,,,,b,1.0,2.8088,False,
671469967e2a4f2e612e3846,,practice,,,,n,1.0,2.6619,False,
671469967e2a4f2e612e3846,,practice,,,,b,1.0,3.2938,False,
671469967e2a4f2e612e3846,,practice,,,,n,1.0,1.6976,False,
671469967e2a4f2e612e3846,,practice,,,,n,1.0,2.0955,False,
671469967e2a4f2e612e3846,,practice,,,,n,1.0,2.9681,False,
671469967e2a4f2e612e3846,,practice,,,,n,0.0,3.2309,False,
671469967e2a4f2e612e3846,,practice,,,,n,0.0,3.5636,False,
671469967e2a4f2e612e3846,,practice,,,,n,1.0,3.2642,False,
671469967e2a4f2e612e3846,,practice,,,,b,1.0,4.0652,False,
671469967e2a4f2e612e3846,,practice,,,,n,0.0,3.2618,False,
671469967e2a4f2e612e3846,,practice,,,,n,1.0,4.3147,False,
671469967e2a4f2e612e3846,,test,50.0,Different,AD50,n,1.0,4.0788,False,
671469967e2a4f2e612e3846,,test,0.0,Different,AD0,n,1.0,1.5659,False,
671469967e2a4f2e612e3846,,test,100.0,Same,AD100,b,1.0,5.6046,False,
671469967e2a4f2e612e3846,,test,0.0,Same,AD0,b,1.0,2.699,False,
671469967e2a4f2e612e3846,,,100.0,Different,AD100,,,,False,
671469967e2a4f2e612e3846,,test,50.0,Same,AD50,b,1.0,1.6631,False,
671469967e2a4f2e612e3846,,test,150.0,Different,AD150,b,0.0,2.4932,False,
671469967e2a4f2e612e3846,,test,0.0,Same,AD0,b,1.0,1.7421,False,
671469967e2a4f2e612e3846,,test,150.0,Different,AD150,n,1.0,3.018,False,
671469967e2a4f2e612e3846,,test,150.0,Same,AD150,b,1.0,4.0831,False,
671469967e2a4f2e612e3846,,test,50.0,Same,AD50,b,1.0,1.6028,False,
671469967e2a4f2e612e3846,,test,150.0,Different,AD150,n,1.0,2.5801,False,
671469967e2a4f2e612e3846,,test,50.0,Different,AD50,n,1.0,2.2632,False,
671469967e2a4f2e612e3846,,test,0.0,Different,AD0,n,1.0,1.4341,False,
671469967e2a4f2e612e3846,,test,50.0,Same,AD50,b,1.0,2.6495,False,
671469967e2a4f2e612e3846,,test,50.0,Different,AD50,n,1.0,4.0291,False,
671469967e2a4f2e612e3846,,test,0.0,Same,AD0,b,1.0,1.3339,False,
671469967e2a4f2e612e3846,,test,150.0,Different,AD150,b,0.0,4.0545,False,
671469967e2a4f2e612e3846,,test,150.0,Same,AD150,b,1.0,2.7917,False,
671469967e2a4f2e612e3846,,test,50.0,Same,AD50,b,1.0,1.6987,False,
671469967e2a4f2e612e3846,,test,100.0,Different,AD100,n,1.0,4.4958,False,
671469967e2a4f2e612e3846,,test,100.0,Same,AD100,b,1.0,2.7681,False,
671469967e2a4f2e612e3846,,test,150.0,Different,AD150,n,1.0,1.1964,False,
671469967e2a4f2e612e3846,,test,50.0,Different,AD50,b,0.0,1.6482,False,
671469967e2a4f2e612e3846,,test,100.0,Same,AD100,n,0.0,2.0842,False,
671469967e2a4f2e612e3846,,test,0.0,Same,AD0,b,1.0,1.2451,False,
671469967e2a4f2e612e3846,,test,100.0,Same,AD100,b,1.0,6.9988,True,RT outlier (> 2.5SD) in AD100
671469967e2a4f2e612e3846,,test,50.0,Different,AD50,n,1.0,1.8524,False,
671469967e2a4f2e612e3846,,test,100.0,Different,AD100,n,1.0,3.757,False,
671469967e2a4f2e612e3846,,test,0.0,Same,AD0,b,1.0,1.0051,False,
671469967e2a4f2e612e3846,,test,150.0,Same,AD150,b,1.0,3.3531,False,
671469967e2a4f2e612e3846,,test,100.0,Different,AD100,b,0.0,3.0418,False,
671469967e2a4f2e612e3846,,test,0.0,Different,AD0,n,1.0,1.2655,False,
671469967e2a4f2e612e3846,,test,50.0,Same,AD50,b,1.0,1.9751,False,
671469967e2a4f2e612e3846,,test,50.0,Same,AD50,b,1.0,1.9679,False,
671469967e2a4f2e612e3846,,test,150.0,Same,AD150,b,1.0,2.8356,False,
671469967e2a4f2e612e3846,,test,0.0,Different,AD0,b,0.0,1.709,False,
671469967e2a4f2e612e3846,,test,100.0,Different,AD100,n,1.0,2.3475,False,
671469967e2a4f2e612e3846,,test,100.0,Same,AD100,b,1.0,2.3473,False,
671469967e2a4f2e612e3846,,test,50.0,Different,AD50,n,1.0,1.5848,False,
671469967e2a4f2e612e3846,,test,0.0,Different,AD0,n,1.0,1.2079,False,
671469967e2a4f2e612e3846,,test,150.0,Same,AD150,b,1.0,1.5794,False,
671469967e2a4f2e612e3846,,test,150.0,Different,AD150,n,1.0,4.1253,False,
671469967e2a4f2e612e3846,,test,150.0,Same,AD150,b,1.0,2.7646,False,
671469967e2a4f2e612e3846,,test,100.0,Different,AD100,n,1.0,2.9268,False,
671469967e2a4f2e612e3846,,test,0.0,Same,AD0,b,1.0,1.2947,False,
671469967e2a4f2e612e3846,,test,0.0,Different,AD0,n,1.0,1.1965,False,
671469967e2a4f2e612e3846,,test,100.0,Same,AD100,b,1.0,2.0943,False,
671469967e2a4f2e612e3846,,test,100.0,Different,AD100,n,1.0,2.7292,False,
671469967e2a4f2e612e3846,,test,50.0,Same,AD50,b,1.0,1.259,False,
671469967e2a4f2e612e3846,,test,150.0,Different,AD150,n,1.0,2.1114,False,
671469967e2a4f2e612e3846,,test,0.0,Different,AD0,n,1.0,5.0284,True,RT outlier (> 2.5SD) in AD0
671469967e2a4f2e612e3846,,test,150.0,Different,AD150,b,0.0,5.1412,False,
671469967e2a4f2e612e3846,,test,50.0,Same,AD50,b,1.0,2.2819,False,
671469967e2a4f2e612e3846,,test,150.0,Different,AD150,n,1.0,1.3486,False,
671469967e2a4f2e612e3846,,test,0.0,Same,AD0,b,1.0,1.0999,False,
671469967e2a4f2e612e3846,,test,100.0,Same,AD100,b,1.0,2.4632,False,
671469967e2a4f2e612e3846,,test,0.0,Different,AD0,b,0.0,1.7129,False,
671469967e2a4f2e612e3846,,test,100.0,Same,AD100,b,1.0,2.2839,False,
671469967e2a4f2e612e3846,,test,0.0,Different,AD0,n,1.0,1.0879,False,
671469967e2a4f2e612e3846,,test,50.0,Same,AD50,b,1.0,1.5907,False,
671469967e2a4f2e612e3846,,test,150.0,Same,AD150,b,1.0,3.5806,False,
671469967e2a4f2e612e3846,,test,100.0,Different,AD100,n,1.0,2.4234,False,
671469967e2a4f2e612e3846,,test,150.0,Same,AD150,b,1.0,1.9076,False,
671469967e2a4f2e612e3846,,test,100.0,Different,AD100,n,1.0,3.1261,False,
671469967e2a4f2e612e3846,,test,100.0,Different,AD100,b,0.0,3.4031,False,
671469967e2a4f2e612e3846,,test,100.0,Same,AD100,b,1.0,2.1438,False,
671469967e2a4f2e612e3846,,test,0.0,Same,AD0,b,1.0,1.0141,False,
671469967e2a4f2e612e3846,,test,100.0,Different,AD100,n,1.0,2.1832,False,
671469967e2a4f2e612e3846,,test,150.0,Same,AD150,b,1.0,1.102,False,
671469967e2a4f2e612e3846,,test,150.0,Different,AD150,n,1.0,2.8295,False,
671469967e2a4f2e612e3846,,test,150.0,Different,AD150,n,1.0,3.3083,False,
671469967e2a4f2e612e3846,,test,100.0,Same,AD100,b,1.0,1.7596,False,
671469967e2a4f2e612e3846,,test,0.0,Different,AD0,n,1.0,1.8337,False,
671469967e2a4f2e612e3846,,test,0.0,Same,AD0,b,1.0,0.8412,False,
671469967e2a4f2e612e3846,,test,150.0,Different,AD150,n,1.0,1.7456,False,
671469967e2a4f2e612e3846,,test,50.0,Same,AD50,b,1.0,1.2799,False,
671469967e2a4f2e612e3846,,test,50.0,Different,AD50,n,1.0,3.0532,False,
671469967e2a4f2e612e3846,,test,50.0,Different,AD50,n,1.0,1.4441,False,
671469967e2a4f2e612e3846,,test,150.0,Same,AD150,b,1.0,3.2147,False,
671469967e2a4f2e612e3846,,test,0.0,Same,AD0,b,1.0,1.0333,False,
671469967e2a4f2e612e3846,,test,100.0,Same,AD100,b,1.0,1.716,False,
671469967e2a4f2e612e3846,,test,50.0,Different,AD50,n,1.0,3.2146,False,
671469967e2a4f2e612e3846,,test,150.0,Same,AD150,b,1.0,2.1768,False,
671469967e2a4f2e612e3846,,test,50.0,Different,AD50,n,1.0,3.49,False,
671469967e2a4f2e612e3846,,test,50.0,Different,AD50,n,1.0,2.5858,False,
671469967e2a4f2e612e3846,,test,0.0,Same,AD0,b,1.0,0.801,False,
671469967e2a4f2e612e3846,,test,0.0,Different,AD0,n,1.0,1.5648,False,
671469967e2a4f2e612e3846,,test,0.0,Different,AD0,n,1.0,1.661,False,
671469967e2a4f2e612e3846,,test,150.0,Same,AD150,b,1.0,4.13,False,
671469967e2a4f2e612e3846,,test,50.0,Same,AD50,b,1.0,1.1653,False,
671469967e2a4f2e612e3846,,test,100.0,Different,AD100,b,0.0,5.4375,False,
671469967e2a4f2e612e3846,,test,0.0,Same,AD0,b,1.0,0.7668,False,
671469967e2a4f2e612e3846,,test,50.0,Same,AD50,b,1.0,1.2614,False,
671469967e2a4f2e612e3846,,test,100.0,Same,AD100,b,1.0,1.765,False,
671469967e2a4f2e612e3846,,test,50.0,Different,AD50,n,1.0,3.0371,False,
671469967e2a4f2e612e3846,,,,,,,,,False,
671469967e2a4f2e612e3846,,,,,,,,,False,
671469967e2a4f2e612e3846,,,,,,,,,False,
671469967e2a4f2e612e3846,,,,,,,,,False,
671469967e2a4f2e612e3846,,,,,,,,,False,
671469967e2a4f2e612e3846,,,,,,,,,False,
671469967e2a4f2e612e3846,,,,,,,,,False,
671469967e2a4f2e612e3846,,,,,,,,,False,
671469967e2a4f2e612e3846,,,,,,,,,False,
671469967e2a4f2e612e3846,,,,,,,,,False,
671469967e2a4f2e612e3846,,,,,,,,,False,
671469967e2a4f2e612e3846,,,,,,,,,False,
671469967e2a4f2e612e3846,,,,,,,,,False,
671469967e2a4f2e612e3846,,,,,,,,,False,
671469967e2a4f2e612e3846,,,,,,,,,False,
671469967e2a4f2e612e3846,,,,,,,,,False,
671469967e2a4f2e612e3846,,,,,,,,,False,
671469967e2a4f2e612e3846,,,,,,,,,False,
671469967e2a4f2e612e3846,,,,,,,,,False,
671469967e2a4f2e612e3846,,,,,,,,,False,
671469967e2a4f2e612e3846,,,,,,,,,False,
671469967e2a4f2e612e3846,,,,,,,,,False,
671469967e2a4f2e612e3846,,,,,,,,,False,
671469967e2a4f2e612e3846,,,,,,,,,False,
671469967e2a4f2e612e3846,,,,,,,,,False,
671469967e2a4f2e612e3846,,,,,,,,,False,
671469967e2a4f2e612e3846,,,,,,,,,False,
671469967e2a4f2e612e3846,,,,,,,,,False,
671469967e2a4f2e612e3846,,,,,,,,,False,
671469967e2a4f2e612e3846,,,,,,,,,False,
671469967e2a4f2e612e3846,,,,,,,,,False,
671469967e2a4f2e612e3846,,,,,,,,,False,
671469967e2a4f2e612e3846,,,,,,,,,False,
671469967e2a4f2e612e3846,,,,,,,,,False,
671469967e2a4f2e612e3846,,,,,,,,,False,
671469967e2a4f2e612e3846,,,,,,,,,False,
671469967e2a4f2e612e3846,,,,,,,,,False,
671469967e2a4f2e612e3846,,,,,,,,,False,
671469967e2a4f2e612e3846,,,,,,,,,False,
671469967e2a4f2e612e3846,,,,,,,,,False,
671469967e2a4f2e612e3846,,,,,,,,,False,
671469967e2a4f2e612e3846,,,,,,,,,False,
671469967e2a4f2e612e3846,,,,,,,,,False,
671469967e2a4f2e612e3846,,,,,,,,,False,
671469967e2a4f2e612e3846,,,,,,,,,False,
671469967e2a4f2e612e3846,,,,,,,,,False,
671469967e2a4f2e612e3846,,,,,,,,,False,
671469967e2a4f2e612e3846,,,,,,,,,False,
671469967e2a4f2e612e3846,,,,,,,,,False,
671469967e2a4f2e612e3846,,,,,,,,,False,
671469967e2a4f2e612e3846,,,,,,,,,False,
671469967e2a4f2e612e3846,,,,,,,,,False,
671469967e2a4f2e612e3846,,,,,,,,,False,
671469967e2a4f2e612e3846,,,,,,,,,False,
671469967e2a4f2e612e3846,,,,,,,,,False,
671469967e2a4f2e612e3846,,,,,,,,,False,
671469967e2a4f2e612e3846,,,,,,,,,False,
671469967e2a4f2e612e3846,,,,,,,,,False,
671469967e2a4f2e612e3846,,,,,,,,,False,
671469967e2a4f2e612e3846,,,,,,,,,False,
671469967e2a4f2e612e3846,,,,,,,,,False,
671469967e2a4f2e612e3846,,,,,,,,,False,
671469967e2a4f2e612e3846,,,,,,,,,False,
671469967e2a4f2e612e3846,,,,,,,,,False,
671469967e2a4f2e612e3846,,,,,,,,,False,
671469967e2a4f2e612e3846,,,,,,,,,False,
671469967e2a4f2e612e3846,,,,,,,,,False,
671469967e2a4f2e612e3846,,,,,,,,,False,
671469967e2a4f2e612e3846,,,,,,,,,False,
671469967e2a4f2e612e3846,,,,,,,,,False,
671469967e2a4f2e612e3846,,,,,,,,,False,
671469967e2a4f2e612e3846,,,,,,,,,False,
671469967e2a4f2e612e3846,,,,,,,,,False,
671469967e2a4f2e612e3846,,,,,,,,,False,
671469967e2a4f2e612e3846,,,,,,,,,False,
671469967e2a4f2e612e3846,,,,,,,,,False,
671469967e2a4f2e612e3846,,,,,,,,,False,
671469967e2a4f2e612e3846,,,,,,,,,False,
671469967e2a4f2e612e3846,,,,,,,,,False,
671469967e2a4f2e612e3846,,,,,,,,,False,
671469967e2a4f2e612e3846,,,,,,,,,False,
671469967e2a4f2e612e3846,,,,,,,,,False,
671469967e2a4f2e612e3846,,,,,,,,,False,
671469967e2a4f2e612e3846,,,,,,,,,False,
671469967e2a4f2e612e3846,,,,,,,,,False,
671469967e2a4f2e612e3846,,,,,,,,,False,
671469967e2a4f2e612e3846,,,,,,,,,False,
671469967e2a4f2e612e3846,,,,,,,,,False,
671469967e2a4f2e612e3846,,,,,,,,,False,
671469967e2a4f2e612e3846,,,,,,,,,False,
671469967e2a4f2e612e3846,,,,,,,,,False,
671469967e2a4f2e612e3846,,,,,,,,,False,
671469967e2a4f2e612e3846,,,,,,,,,False,
671469967e2a4f2e612e3846,,,,,,,,,False,
671469967e2a4f2e612e3846,,,,,,,,,False,
