PROLIFIC_PID,angular_disparity,n_valid_trials,n_correct_trials,accuracy,mean_rt_correct,rt_sd_correct
5cd063ce657e300016f6c95a,0,24,23.0,0.9583333333333334,1.572669565217391,0.8381395563089732
5cd063ce657e300016f6c95a,50,24,23.0,0.9583333333333334,2.0541869565217388,1.0064857390961646
5cd063ce657e300016f6c95a,100,24,22.0,0.9166666666666666,2.816581818181818,1.4012096908560538
5cd063ce657e300016f6c95a,150,23,22.0,0.9565217391304348,3.0727727272727274,1.6891771699859466
678e92010390e1c202944292,0,23,22.0,0.9565217391304348,1.3939863636363634,0.244135056875638
678e92010390e1c202944292,50,24,23.0,0.9583333333333334,1.6861043478260869,0.5248600908625433
678e92010390e1c202944292,100,23,21.0,0.9130434782608695,2.03052380952381,0.7576001913309961
678e92010390e1c202944292,150,24,22.0,0.9166666666666666,2.160122727272727,0.6400452416537727
64013a8e233aaa42388c821f,0,23,22.0,0.9565217391304348,1.8101363636363637,0.7659235505462573
64013a8e233aaa42388c821f,50,23,20.0,0.8695652173913043,2.4330000000000003,0.7483589062953544
64013a8e233aaa42388c821f,100,24,22.0,0.9166666666666666,3.002272727272728,0.7823861658759774
64013a8e233aaa42388c821f,150,23,21.0,0.9130434782608695,2.8649999999999998,0.908057652354739
6754d95f656838004bc46eed,0,24,20.0,0.8333333333333334,2.6650399999999994,1.7887475348910888
6754d95f656838004bc46eed,50,22,20.0,0.9090909090909091,3.343605,1.6064503152095437
6754d95f656838004bc46eed,100,22,20.0,0.9090909090909091,4.209075,1.657195194447534
6754d95f656838004bc46eed,150,22,21.0,0.9545454545454546,4.324061904761904,1.3078069347102388
675ed2ef6a6a6ae2ce682c30,0,22,13.0,0.5909090909090909,0.25353846153846155,0.025280477924726104
675ed2ef6a6a6ae2ce682c30,50,22,16.0,0.7272727272727273,0.24268750000000003,0.018365615517410068
675ed2ef6a6a6ae2ce682c30,100,22,12.0,0.5454545454545454,0.8080000000000002,1.157317274012305
675ed2ef6a6a6ae2ce682c30,150,23,12.0,0.5217391304347826,0.2956666666666667,0.15571204970792218
5e76d2652d882b2481d65066,0,23,23.0,1.0,2.423343478260869,0.7633123266551612
5e76d2652d882b2481d65066,50,24,24.0,1.0,2.5850000000000004,0.7041005949621737
5e76d2652d882b2481d65066,100,24,24.0,1.0,3.3425541666666665,0.9542584550908201
5e76d2652d882b2481d65066,150,23,20.0,0.8695652173913043,2.61493,0.8608083924581101
671469967e2a4f2e612e3846,0,23,21.0,0.9130434782608695,1.3187380952380954,0.4366049902099041
671469967e2a4f2e612e3846,50,24,23.0,0.9583333333333334,2.218626086956522,0.8913100446265453
671469967e2a4f2e612e3846,100,22,18.0,0.8181818181818182,2.7186000000000003,1.00690647675997
671469967e2a4f2e612e3846,150,24,21.0,0.875,2.6563047619047624,0.9488108391434988
651d64f5eb4ac4993ecc5abd,0,23,22.0,0.9565217391304348,1.3006181818181817,0.2282173663864043
651d64f5eb4ac4993ecc5abd,50,24,24.0,1.0,2.0844624999999994,0.9234088311263727
651d64f5eb4ac4993ecc5abd,100,23,21.0,0.9130434782608695,2.3158095238095235,0.8172968511530936
651d64f5eb4ac4993ecc5abd,150,23,19.0,0.8260869565217391,2.1871315789473686,0.6283170033710263
62861bcc5f0edf6340c914df,0,23,23.0,1.0,1.4515434782608696,0.5491690010006747
62861bcc5f0edf6340c914df,50,23,22.0,0.9565217391304348,1.5471318181818183,0.5200391911846313
62861bcc5f0edf6340c914df,100,24,22.0,0.9166666666666666,2.1350590909090914,0.7098004828045767
62861bcc5f0edf6340c914df,150,22,21.0,0.9545454545454546,2.1057809523809525,0.3750815932821119
6773f03382962d5d8c2ca38a,0,23,21.0,0.9130434782608695,1.5577571428571428,0.8525864352494875
6773f03382962d5d8c2ca38a,50,23,19.0,0.8260869565217391,2.399663157894737,1.3744987527622676
6773f03382962d5d8c2ca38a,100,22,19.0,0.8636363636363636,1.9690736842105265,0.9308598700139239
6773f03382962d5d8c2ca38a,150,24,21.0,0.875,2.2152238095238097,0.6738502199337489
6721aeda53346fd7b593efd7,0,24,24.0,1.0,2.3222875000000003,0.9838544410334815
6721aeda53346fd7b593efd7,50,24,23.0,0.9583333333333334,2.901043478260869,0.5838666339203958
6721aeda53346fd7b593efd7,100,24,23.0,0.9583333333333334,3.0669521739130436,0.8032390558174534
6721aeda53346fd7b593efd7,150,24,21.0,0.875,2.8939523809523813,0.7114013498855954
664f408259a7d76b52e2ae25,0,24,22.0,0.9166666666666666,2.278631818181818,1.0751162902267004
664f408259a7d76b52e2ae25,50,24,22.0,0.9166666666666666,2.5704136363636363,1.091788038165552
664f408259a7d76b52e2ae25,100,22,20.0,0.9090909090909091,3.2824599999999995,1.1740988676203417
664f408259a7d76b52e2ae25,150,24,22.0,0.9166666666666666,3.2520954545454543,0.9803288415615459
678fa1020e5289062a7e76f0,0,24,23.0,0.9583333333333334,2.8605782608695653,1.1694266940205131
678fa1020e5289062a7e76f0,50,24,18.0,0.75,4.21035,1.3614853982712714
678fa1020e5289062a7e76f0,100,22,10.0,0.45454545454545453,4.088289999999999,1.3769469363212383
678fa1020e5289062a7e76f0,150,24,17.0,0.7083333333333334,4.212082352941176,1.2650818408482978
6699571ba83beb19c5acbfef,0,23,23.0,1.0,1.9017391304347822,0.5957163920548484
6699571ba83beb19c5acbfef,50,24,22.0,0.9166666666666666,2.5756818181818186,0.8227029427652681
6699571ba83beb19c5acbfef,100,23,23.0,1.0,3.056173913043479,0.9403271989614675
6699571ba83beb19c5acbfef,150,24,19.0,0.7916666666666666,4.2368421052631575,1.6236397131533382
61233706eb1ec697c18d5aef,0,24,22.0,0.9166666666666666,2.1116818181818187,1.4464593967064359
61233706eb1ec697c18d5aef,50,22,18.0,0.8181818181818182,2.793816666666667,1.1906942054458622
61233706eb1ec697c18d5aef,100,22,17.0,0.7727272727272727,3.4691529411764708,1.6892299736557657
61233706eb1ec697c18d5aef,150,22,18.0,0.8181818181818182,4.249966666666667,1.7111186330791295
669adbdb7e97d6e53cb2d924,0,24,23.0,0.9583333333333334,2.9607391304347823,1.4020270136611395
669adbdb7e97d6e53cb2d924,50,23,20.0,0.8695652173913043,4.021050000000001,1.6911637685644945
669adbdb7e97d6e53cb2d924,100,23,20.0,0.8695652173913043,4.89745,1.1992184505357075
669adbdb7e97d6e53cb2d924,150,23,17.0,0.7391304347826086,5.444470588235295,0.9837149687312288
67343fb98c1f4f89ea821878,0,23,16.0,0.6956521739130435,1.1167562500000003,0.46668331870587937
67343fb98c1f4f89ea821878,50,23,13.0,0.5652173913043478,0.8737769230769229,0.2828839106825924
67343fb98c1f4f89ea821878,100,23,14.0,0.6086956521739131,0.8461071428571428,0.30103099115765913
67343fb98c1f4f89ea821878,150,23,12.0,0.5217391304347826,0.8431083333333333,0.2893804682054196
676fac81dc17021dfb5fad67,0,23,18.0,0.782608695652174,1.909438888888889,0.6399546630439018
676fac81dc17021dfb5fad67,50,23,23.0,1.0,2.6196434782608695,0.8558614229514279
676fac81dc17021dfb5fad67,100,24,22.0,0.9166666666666666,3.5855090909090914,1.035355865625365
676fac81dc17021dfb5fad67,150,24,22.0,0.9166666666666666,3.958313636363636,1.432180120786706
612039d9400fae9545b3c5a8,0,46,45.0,0.9782608695652174,2.3145400000888885,0.9871383422224738
612039d9400fae9545b3c5a8,50,46,44.0,0.9565217391304348,2.9901431819090907,1.1647118672491712
612039d9400fae9545b3c5a8,100,47,42.0,0.8936170212765957,3.4770023810476185,1.5484940615502243
612039d9400fae9545b3c5a8,150,47,44.0,0.9361702127659575,3.422268181795455,1.4669026663177176
65d863e56337aa59292ccd66,0,23,23.0,1.0,1.2561739130434786,0.3150213055094864
65d863e56337aa59292ccd66,50,24,20.0,0.8333333333333334,1.7402999999999995,0.5871096104960658
65d863e56337aa59292ccd66,100,23,22.0,0.9565217391304348,1.620909090909091,0.35328417121023925
65d863e56337aa59292ccd66,150,23,19.0,0.8260869565217391,1.997421052631579,0.4409873159916247
6110b58d7063061e373e2fbc,0,24,22.0,0.9166666666666666,2.3755181818181814,0.9506604549501679
6110b58d7063061e373e2fbc,50,22,15.0,0.6818181818181818,2.931426666666667,0.8971550809297661
6110b58d7063061e373e2fbc,100,23,18.0,0.782608695652174,2.78425,0.9491188521930409
6110b58d7063061e373e2fbc,150,24,21.0,0.875,2.9875,0.8070189241895137
60fdc934e81b93f92f561d76,0,23,23.0,1.0,2.67395652173913,1.8322439212928567
60fdc934e81b93f92f561d76,50,24,23.0,0.9583333333333334,2.881208695652174,1.3811356877956513
60fdc934e81b93f92f561d76,100,23,21.0,0.9130434782608695,3.3472523809523813,1.2786418253831084
60fdc934e81b93f92f561d76,150,23,18.0,0.782608695652174,3.280477777777778,1.4887833839021063
6127017baee75f10aa174139,0,23,21.0,0.9130434782608695,1.5566238095238096,0.8750602304440317
6127017baee75f10aa174139,50,23,22.0,0.9565217391304348,2.856081818181818,1.4607484818656247
6127017baee75f10aa174139,100,24,23.0,0.9583333333333334,3.6099260869565217,1.436315136735602
6127017baee75f10aa174139,150,24,23.0,0.9583333333333334,3.8160956521739124,1.6406682694666774
6655fd511b6c8d1fd05de12d,0,22,20.0,0.9090909090909091,2.0651249999999997,0.673145361540253
6655fd511b6c8d1fd05de12d,50,24,19.0,0.7916666666666666,2.9252368421052624,1.061881097764469
6655fd511b6c8d1fd05de12d,100,24,16.0,0.6666666666666666,3.771825,1.0647782664323435
6655fd511b6c8d1fd05de12d,150,24,19.0,0.7916666666666666,3.6873421052631588,1.3999137915186814
5e968e6744b6d010b16540a4,0,23,22.0,0.9565217391304348,1.6376818181818178,0.8422222524433931
5e968e6744b6d010b16540a4,50,24,22.0,0.9166666666666666,2.197454545454545,0.8940427563693193
5e968e6744b6d010b16540a4,100,23,21.0,0.9130434782608695,3.083285714285714,0.704440071465071
5e968e6744b6d010b16540a4,150,23,19.0,0.8260869565217391,3.4482631578947367,1.0072007877779805
673a37f0ad04c995c8322ca6,0,24,24.0,1.0,1.6111416666666665,0.9756964152389538
673a37f0ad04c995c8322ca6,50,24,24.0,1.0,1.9242708333333332,0.9270374306401933
673a37f0ad04c995c8322ca6,100,22,22.0,1.0,2.6047181818181815,0.9460213229432006
673a37f0ad04c995c8322ca6,150,23,23.0,1.0,3.20144347826087,1.5795083290885423
66f8367b5310ebb97346b93c,0,23,22.0,0.9565217391304348,1.642504545454546,0.7001494551180945
66f8367b5310ebb97346b93c,50,24,20.0,0.8333333333333334,1.932165,0.6072718738016164
66f8367b5310ebb97346b93c,100,21,19.0,0.9047619047619048,2.2537947368421056,0.5803477745414423
66f8367b5310ebb97346b93c,150,24,22.0,0.9166666666666666,2.5737318181818187,1.096314046241775
610341bbc7f7114aea9a2cea,0,24,22.0,0.9166666666666666,3.1086590909090903,1.6082252586414838
610341bbc7f7114aea9a2cea,50,24,21.0,0.875,3.4725523809523806,1.2139593854899133
610341bbc7f7114aea9a2cea,100,23,21.0,0.9130434782608695,4.4240095238095245,1.1685582235835585
610341bbc7f7114aea9a2cea,150,23,16.0,0.6956521739130435,4.534625,1.1322632612015047
673e759016f888e8212c0c1f,0,24,22.0,0.9166666666666666,1.6417318181818181,0.4807822855329125
673e759016f888e8212c0c1f,50,23,21.0,0.9130434782608695,1.9486571428571426,0.7328906429825861
673e759016f888e8212c0c1f,100,24,23.0,0.9583333333333334,2.008004347826087,0.6020589494531252
673e759016f888e8212c0c1f,150,23,19.0,0.8260869565217391,1.968042105263158,0.6575226335908222
65fa95fafeda35caf378b6f9,0,24,24.0,1.0,1.8627208333333336,0.982070266670128
65fa95fafeda35caf378b6f9,50,23,22.0,0.9565217391304348,1.8687045454545457,0.6938296974229152
65fa95fafeda35caf378b6f9,100,24,23.0,0.9583333333333334,2.356939130434782,0.8616440805698299
65fa95fafeda35caf378b6f9,150,24,21.0,0.875,2.6789904761904757,0.966227556999262
67519b91595db9a046359da0,0,23,23.0,1.0,1.8972869565217392,0.6111787822830922
67519b91595db9a046359da0,50,24,24.0,1.0,2.601120833333333,1.2207155602810669
67519b91595db9a046359da0,100,23,23.0,1.0,2.8102695652173915,0.887885686455998
67519b91595db9a046359da0,150,24,20.0,0.8333333333333334,3.1683899999999996,1.313976396848012
66122c3b55a1487b4e58e292,0,24,20.0,0.8333333333333334,1.3588350000000002,0.4120312050969977
66122c3b55a1487b4e58e292,50,24,23.0,0.9583333333333334,1.4931434782608697,0.5986157758651408
66122c3b55a1487b4e58e292,100,24,19.0,0.7916666666666666,2.080347368421053,0.7265825917482327
66122c3b55a1487b4e58e292,150,24,17.0,0.7083333333333334,1.8407764705882352,0.5499806548068438
6575c6e1563027adb8f299cb,0,24,24.0,1.0,1.9384624999999993,0.8060506920149787
6575c6e1563027adb8f299cb,50,24,24.0,1.0,2.5288875,0.9776462124886887
6575c6e1563027adb8f299cb,100,24,23.0,0.9583333333333334,3.05295652173913,0.9048771367258485
6575c6e1563027adb8f299cb,150,24,22.0,0.9166666666666666,3.01625,0.9248067019395895
672a89bc5e3d67a9fdbdf803,0,24,22.0,0.9166666666666666,3.183436363636363,0.7603207966725715
672a89bc5e3d67a9fdbdf803,50,22,20.0,0.9090909090909091,4.76425,1.351628620551791
672a89bc5e3d67a9fdbdf803,100,24,18.0,0.75,4.448683333333333,0.7616259289101411
672a89bc5e3d67a9fdbdf803,150,22,17.0,0.7727272727272727,4.2542647058823535,0.9783185472669271
5a9bbda1f6dfdd0001ea9639,0,23,22.0,0.9565217391304348,1.4496181818181817,0.7958191237642621
5a9bbda1f6dfdd0001ea9639,50,23,22.0,0.9565217391304348,2.3025772727272726,1.0998674928553107
5a9bbda1f6dfdd0001ea9639,100,23,23.0,1.0,2.830117391304348,1.3407337620097755
5a9bbda1f6dfdd0001ea9639,150,23,21.0,0.9130434782608695,3.123647619047619,1.220995997380437
605e42cc59833acecfd3f301,0,24,24.0,1.0,1.2725666666666666,0.5461716792258693
605e42cc59833acecfd3f301,50,23,23.0,1.0,1.8430130434782608,0.8009337501284746
605e42cc59833acecfd3f301,100,23,20.0,0.8695652173913043,2.1161500000000006,0.4911917746396861
605e42cc59833acecfd3f301,150,23,16.0,0.6956521739130435,2.4701874999999998,0.7765051481907037
677d3cc83d0aa6a39541f5d6,0,23,22.0,0.9565217391304348,1.1389454545454547,0.31209234855403617
677d3cc83d0aa6a39541f5d6,50,23,18.0,0.782608695652174,1.9972055555555552,0.7304626015890625
677d3cc83d0aa6a39541f5d6,100,23,21.0,0.9130434782608695,2.190823809523809,0.7931364705425933
677d3cc83d0aa6a39541f5d6,150,24,19.0,0.7916666666666666,2.495121052631579,1.0526124820226774
66e7a85e45c1132f1e2d12b6,0,24,24.0,1.0,1.5247333333333337,0.447665231741471
66e7a85e45c1132f1e2d12b6,50,24,23.0,0.9583333333333334,2.032347826086956,1.0640576649913658
66e7a85e45c1132f1e2d12b6,100,24,22.0,0.9166666666666666,2.7689454545454555,1.0956039416153618
66e7a85e45c1132f1e2d12b6,150,23,22.0,0.9565217391304348,2.8902545454545456,1.3749389024442307
667af5cc382d3037050e3632,0,24,24.0,1.0,2.0025458333333335,1.0949400467919879
667af5cc382d3037050e3632,50,24,23.0,0.9583333333333334,3.4182043478260873,1.243872179006955
667af5cc382d3037050e3632,100,22,17.0,0.7727272727272727,3.8798999999999997,1.2730469566162907
667af5cc382d3037050e3632,150,23,22.0,0.9565217391304348,4.204381818181817,1.4600582514916718
65d563ecf8df20ade2f17888,0,23,22.0,0.9565217391304348,2.0235772727272727,0.7869701736538552
65d563ecf8df20ade2f17888,50,22,20.0,0.9090909090909091,2.7131550000000004,1.2062898985929413
65d563ecf8df20ade2f17888,100,24,22.0,0.9166666666666666,4.0388,1.2049237304454072
65d563ecf8df20ade2f17888,150,23,18.0,0.782608695652174,3.378461111111111,0.9917675018926853
5d27851db6eb920018a5fb27,0,24,22.0,0.9166666666666666,2.0973272727272727,1.2781142758290132
5d27851db6eb920018a5fb27,50,24,18.0,0.75,2.996594444444444,1.0298668957241497
5d27851db6eb920018a5fb27,100,22,17.0,0.7727272727272727,3.462541176470589,1.2360122703976404
5d27851db6eb920018a5fb27,150,23,20.0,0.8695652173913043,3.8048950000000006,1.0984373548843207
5eddaa6d115bb4ac7e59f153,0,22,21.0,0.9545454545454546,1.3273238095238096,0.6483256472674531
5eddaa6d115bb4ac7e59f153,50,24,23.0,0.9583333333333334,2.239930434782609,1.2403774035036796
5eddaa6d115bb4ac7e59f153,100,24,19.0,0.7916666666666666,2.1612684210526316,0.5925258157082287
5eddaa6d115bb4ac7e59f153,150,24,23.0,0.9583333333333334,2.4067304347826086,1.226988328993461
653ed34dfa601f3952c72ed4,0,24,22.0,0.9166666666666666,3.0229500000000002,1.6156432599962867
653ed34dfa601f3952c72ed4,50,24,20.0,0.8333333333333334,3.49677,1.653967130425002
653ed34dfa601f3952c72ed4,100,24,15.0,0.625,3.9182333333333337,1.7756573437408896
653ed34dfa601f3952c72ed4,150,24,16.0,0.6666666666666666,4.2252375,1.2310851727236423
5df967d2f6191f6e87b236e6,0,23,22.0,0.9565217391304348,1.4430954545454548,0.6142827830872378
5df967d2f6191f6e87b236e6,50,23,23.0,1.0,1.7033521739130435,0.45729185316636906
5df967d2f6191f6e87b236e6,100,24,21.0,0.875,2.3823238095238093,0.9720733613800773
5df967d2f6191f6e87b236e6,150,23,22.0,0.9565217391304348,2.406890909090909,0.9219524819430983
678434b875eab5b07a505724,0,24,22.0,0.9166666666666666,2.7538227272727274,1.3695780058911502
678434b875eab5b07a505724,50,24,24.0,1.0,3.105429166666666,1.666280649799105
678434b875eab5b07a505724,100,23,23.0,1.0,3.5956478260869567,1.2723542920220285
678434b875eab5b07a505724,150,23,22.0,0.9565217391304348,3.8171363636363638,1.5870790617163746
58a229e74d580c0001e0a766,0,24,23.0,0.9583333333333334,1.781621739130435,0.8475946853501982
58a229e74d580c0001e0a766,50,23,22.0,0.9565217391304348,1.923140909045454,0.47985131601287756
58a229e74d580c0001e0a766,100,23,23.0,1.0,2.2150608697391303,0.7355274228605349
58a229e74d580c0001e0a766,150,23,21.0,0.9130434782608695,2.4570809523333326,0.6600054522027948
630386f64c5bbd56ab1c3b0f,0,24,24.0,1.0,2.9017874999999997,0.8773629511768926
630386f64c5bbd56ab1c3b0f,50,24,23.0,0.9583333333333334,3.288726086956521,0.8912187723548178
630386f64c5bbd56ab1c3b0f,100,23,19.0,0.8260869565217391,3.9969210526315786,1.4473796851087475
630386f64c5bbd56ab1c3b0f,150,24,22.0,0.9166666666666666,4.2070954545454535,0.914973131261643
66c9071f0a3b0e1d3a041c01,0,23,23.0,1.0,2.126039130434782,1.0031447424516067
66c9071f0a3b0e1d3a041c01,50,23,20.0,0.8695652173913043,3.7596499999999997,1.3600488309732037
66c9071f0a3b0e1d3a041c01,100,21,19.0,0.9047619047619048,4.247826315789474,1.1534897296860636
66c9071f0a3b0e1d3a041c01,150,24,24.0,1.0,4.217825,1.6856288002971784
662ddcfc1103d1acda67d937,0,23,23.0,1.0,1.7621217391304347,0.5683731776319
662ddcfc1103d1acda67d937,50,24,24.0,1.0,2.6411458333333333,1.1805301001555142
662ddcfc1103d1acda67d937,100,24,22.0,0.9166666666666666,2.856413636363636,0.895161204048615
662ddcfc1103d1acda67d937,150,23,21.0,0.9130434782608695,2.9891714285714284,0.9614070012969831
5e7987df47422a5443426cd7,0,23,21.0,0.9130434782608695,1.7059666666666662,0.6099723250552711
5e7987df47422a5443426cd7,50,23,22.0,0.9565217391304348,2.101754545454545,0.7800394151990457
5e7987df47422a5443426cd7,100,23,21.0,0.9130434782608695,2.858595238095238,0.745298010514043
5e7987df47422a5443426cd7,150,23,22.0,0.9565217391304348,3.5056818181818183,0.9667129980537453
678ba680eefc2d7fd8559a03,0,23,21.0,0.9130434782608695,2.171814285714286,0.6846021416017586
678ba680eefc2d7fd8559a03,50,23,21.0,0.9130434782608695,3.1040190476190483,1.1213669165884321
678ba680eefc2d7fd8559a03,100,22,19.0,0.8636363636363636,3.968263157894738,1.498264101556096
678ba680eefc2d7fd8559a03,150,24,24.0,1.0,3.7636083333333326,1.2595752872597026
6779262b285a5b12c721ecee,0,22,19.0,0.8636363636363636,2.7016999999999998,1.3347915376151023
6779262b285a5b12c721ecee,50,24,22.0,0.9166666666666666,3.4118,1.3352248977678058
6779262b285a5b12c721ecee,100,23,18.0,0.782608695652174,3.7200500000000005,1.2055153807543453
6779262b285a5b12c721ecee,150,22,18.0,0.8181818181818182,4.005372222222223,1.0046261088558128
671d2abf2ba7384f9b45678a,0,24,23.0,0.9583333333333334,2.0542826086956523,1.084945892933323
671d2abf2ba7384f9b45678a,50,23,23.0,1.0,2.1898999999999997,0.7015451291127449
671d2abf2ba7384f9b45678a,100,23,23.0,1.0,3.2379347826086957,1.5418914967746877
671d2abf2ba7384f9b45678a,150,23,23.0,1.0,3.5323739130434793,1.3333272595678523
66370a20a4b5b1a460904760,0,23,23.0,1.0,1.790717391304348,0.46578640213199357
66370a20a4b5b1a460904760,50,24,24.0,1.0,2.3397916666666667,0.9173578491547326
66370a20a4b5b1a460904760,100,23,23.0,1.0,2.6647478260869564,0.945882845364134
66370a20a4b5b1a460904760,150,23,22.0,0.9565217391304348,3.5066863636363634,0.9371628883652
6535d3f1b4ff80adff474548,0,24,24.0,1.0,1.2474583333333336,0.40750737301056406
6535d3f1b4ff80adff474548,50,23,22.0,0.9565217391304348,1.7094545454545453,0.6548324923777019
6535d3f1b4ff80adff474548,100,23,23.0,1.0,2.3321304347826093,0.8036219319345173
6535d3f1b4ff80adff474548,150,23,21.0,0.9130434782608695,2.4754285714285715,0.7009931220367694
678d4b5574c6a54d8f4cafd8,0,24,23.0,0.9583333333333334,1.4493695652173912,0.6794429800377142
678d4b5574c6a54d8f4cafd8,50,23,20.0,0.8695652173913043,1.4319,0.601590340592946
678d4b5574c6a54d8f4cafd8,100,23,22.0,0.9565217391304348,2.0236181818181813,0.8140181170537759
678d4b5574c6a54d8f4cafd8,150,23,22.0,0.9565217391304348,1.9362681818181817,0.8511090794544904
5b19f4854c72120001f1e1b3,0,24,24.0,1.0,1.8744083333333332,0.6828873883334846
5b19f4854c72120001f1e1b3,50,24,23.0,0.9583333333333334,1.9789739130434785,0.5706957159446955
5b19f4854c72120001f1e1b3,100,24,22.0,0.9166666666666666,2.4603545454545452,0.5077199694312874
5b19f4854c72120001f1e1b3,150,23,22.0,0.9565217391304348,2.376372727272727,0.4122986529456278
6736142695794b6108842ed2,0,23,23.0,1.0,2.2712608696521737,1.3112304567678503
6736142695794b6108842ed2,50,23,23.0,1.0,3.023873912913044,1.1015803800963675
6736142695794b6108842ed2,100,20,20.0,1.0,3.36920499995,0.9790117902408478
6736142695794b6108842ed2,150,24,20.0,0.8333333333333334,3.6827499999999995,1.2156249136083748
66e2a683a6aed2b156557f9d,0,24,23.0,0.9583333333333334,2.2189043478260873,1.2750638841315367
66e2a683a6aed2b156557f9d,50,23,23.0,1.0,2.588334782608696,0.9223536669396377
66e2a683a6aed2b156557f9d,100,23,23.0,1.0,3.040095652173913,0.8800514088693708
66e2a683a6aed2b156557f9d,150,23,22.0,0.9565217391304348,2.9818000000000002,1.1268546152053174
5b68c9eb87af310001584803,0,23,22.0,0.9565217391304348,1.088577272727273,0.3222817976211534
5b68c9eb87af310001584803,50,23,22.0,0.9565217391304348,1.4406500000000002,0.5042414451430981
5b68c9eb87af310001584803,100,23,22.0,0.9565217391304348,1.6809136363636363,0.6101858158013793
5b68c9eb87af310001584803,150,23,20.0,0.8695652173913043,1.8738499999999998,0.6354072763528171
666640831e2f8d963f8c528f,0,24,15.0,0.625,2.502506666666667,1.040868573058555
666640831e2f8d963f8c528f,50,24,17.0,0.7083333333333334,3.520835294117647,0.7628348190640425
666640831e2f8d963f8c528f,100,24,18.0,0.75,3.8404555555555553,1.1155392060620004
666640831e2f8d963f8c528f,150,24,12.0,0.5,4.131033333333334,1.2016498819489305
678851f427536397f63120bf,0,24,23.0,0.9583333333333334,1.8633913043478258,0.7208210438060725
678851f427536397f63120bf,50,24,22.0,0.9166666666666666,2.6652909090909094,1.3139156136957273
678851f427536397f63120bf,100,24,23.0,0.9583333333333334,2.866560869565218,1.0193274911961812
678851f427536397f63120bf,150,23,20.0,0.8695652173913043,3.2111899999999998,1.1643343157539012
60a1e1f4a3707c983a98f185,0,22,19.0,0.8636363636363636,1.3558947368421053,0.8781456405869538
60a1e1f4a3707c983a98f185,50,22,22.0,1.0,1.718954545454546,0.5097738506317079
60a1e1f4a3707c983a98f185,100,23,20.0,0.8695652173913043,2.59035,1.2179679053329167
60a1e1f4a3707c983a98f185,150,23,17.0,0.7391304347826086,2.7851176470588244,1.3990712045118068
676eb8d5dd1b9e51d21ec734,0,24,21.0,0.875,1.444447619047619,0.7415506682749653
676eb8d5dd1b9e51d21ec734,50,23,18.0,0.782608695652174,2.4863055555555555,1.138026540821601
676eb8d5dd1b9e51d21ec734,100,24,21.0,0.875,2.7820714285714283,0.9883759958350148
676eb8d5dd1b9e51d21ec734,150,23,16.0,0.6956521739130435,2.922,1.081744776429881
656cef93133dd04969014614,0,22,21.0,0.9545454545454546,1.5968571428571428,0.5819546619552322
656cef93133dd04969014614,50,23,22.0,0.9565217391304348,2.1200909090909095,0.5728752801265616
656cef93133dd04969014614,100,24,21.0,0.875,2.7115714285714283,0.7817809521489106
656cef93133dd04969014614,150,23,22.0,0.9565217391304348,2.884590909090909,1.22832885541954
5d4869cc692e5400197a980c,0,23,23.0,1.0,1.705347826086956,0.7641114036278678
5d4869cc692e5400197a980c,50,24,22.0,0.9166666666666666,2.1529090909090907,0.7034058578557623
5d4869cc692e5400197a980c,100,24,18.0,0.75,3.366611111111111,1.2135455171612732
5d4869cc692e5400197a980c,150,24,21.0,0.875,3.0793333333333326,0.6475174386326081
66ae394dd6f0020399d3b887,0,23,22.0,0.9565217391304348,1.4484954545454547,0.7300867609741896
66ae394dd6f0020399d3b887,50,23,20.0,0.8695652173913043,1.2028149999999997,0.4008554238323207
66ae394dd6f0020399d3b887,100,23,17.0,0.7391304347826086,1.7480588235294119,0.8816503885177669
66ae394dd6f0020399d3b887,150,23,19.0,0.8260869565217391,1.6727578947368422,0.530578125272371
561487ad7ffc8a0012812266,0,23,22.0,0.9565217391304348,1.758036363636364,0.8518654239488069
561487ad7ffc8a0012812266,50,22,21.0,0.9545454545454546,2.8637523809523815,1.2464831629905988
561487ad7ffc8a0012812266,100,24,21.0,0.875,2.92432380952381,0.8581916894871227
561487ad7ffc8a0012812266,150,23,21.0,0.9130434782608695,3.1575142857142864,1.163360831507454
66505efb53953d2da6e1a8cd,0,24,22.0,0.9166666666666666,1.674577272727273,0.7608344747908729
66505efb53953d2da6e1a8cd,50,23,22.0,0.9565217391304348,1.9448227272727274,0.6598577154940068
66505efb53953d2da6e1a8cd,100,23,20.0,0.8695652173913043,2.1456349999999995,0.8243616019780333
66505efb53953d2da6e1a8cd,150,23,19.0,0.8260869565217391,3.3259684210526315,1.5150910544887435
67529d0aecb73bfe140d521f,0,46,43.0,0.9347826086956522,1.7430209302325588,0.7611060215108447
67529d0aecb73bfe140d521f,50,46,42.0,0.9130434782608695,2.369102380952381,0.8653071944262917
67529d0aecb73bfe140d521f,100,47,40.0,0.851063829787234,3.121085,1.2558658850799684
67529d0aecb73bfe140d521f,150,48,34.0,0.7083333333333334,3.336452941176471,1.6007560625085115
67855ba77a8e1aaf8e477978,0,23,22.0,0.9565217391304348,1.3375863636363636,0.48088662092654155
67855ba77a8e1aaf8e477978,50,23,23.0,1.0,2.074791304347826,0.9123429363771673
67855ba77a8e1aaf8e477978,100,24,22.0,0.9166666666666666,2.6522409090909087,1.1379900793186668
67855ba77a8e1aaf8e477978,150,24,21.0,0.875,3.370252380952381,1.2294041905000355
677c4a2cd686c6b6cfd1ba2a,0,23,22.0,0.9565217391304348,1.597140909090909,0.7683882009078303
677c4a2cd686c6b6cfd1ba2a,50,23,20.0,0.8695652173913043,2.156595,0.9364571080603971
677c4a2cd686c6b6cfd1ba2a,100,24,20.0,0.8333333333333334,3.3722849999999993,1.401379632728518
677c4a2cd686c6b6cfd1ba2a,150,24,20.0,0.8333333333333334,3.1818199999999996,1.1592726356597374
6659f937e570ab09f05021a3,0,24,24.0,1.0,1.695083333333333,0.6233897487451809
6659f937e570ab09f05021a3,50,23,22.0,0.9565217391304348,1.4517318181818182,0.5301472404515952
6659f937e570ab09f05021a3,100,22,22.0,1.0,1.9354363636363638,0.6760640358127923
6659f937e570ab09f05021a3,150,24,21.0,0.875,2.4326190476190477,1.1218909174331735
663b638be7226d4e3fcc255f,0,24,19.0,0.7916666666666666,3.210536842105263,1.2651942789813946
663b638be7226d4e3fcc255f,50,23,18.0,0.782608695652174,3.862066666666666,1.0254116705585357
663b638be7226d4e3fcc255f,100,23,13.0,0.5652173913043478,3.886623076923077,1.332894331992004
663b638be7226d4e3fcc255f,150,21,17.0,0.8095238095238095,5.127205882352942,0.5650869794449659
63ebd39a63bb79b50d438ab7,0,24,18.0,0.75,1.725311111111111,1.0407590391230526
63ebd39a63bb79b50d438ab7,50,24,23.0,0.9583333333333334,2.5004565217391312,0.9948493827647237
63ebd39a63bb79b50d438ab7,100,23,14.0,0.6086956521739131,3.056878571428571,1.1990143395425141
63ebd39a63bb79b50d438ab7,150,23,17.0,0.7391304347826086,2.689088235294118,0.9868625511452652
655fd5be8c6f7bfe39e75e96,0,23,22.0,0.9565217391304348,2.0101590909090907,0.8452573519963585
655fd5be8c6f7bfe39e75e96,50,23,20.0,0.8695652173913043,2.2691350000000003,0.7304864005182474
655fd5be8c6f7bfe39e75e96,100,23,20.0,0.8695652173913043,3.0218499999999997,0.9182226862689394
655fd5be8c6f7bfe39e75e96,150,24,20.0,0.8333333333333334,3.2726949999999997,1.0632647654994647
66ee186efc9a208ef9446a30,0,24,24.0,1.0,2.9679375,0.944166002727551
66ee186efc9a208ef9446a30,50,23,23.0,1.0,3.5821391304347823,1.2473911509222797
66ee186efc9a208ef9446a30,100,23,23.0,1.0,3.4283956521739123,1.3130950940009365
66ee186efc9a208ef9446a30,150,24,23.0,0.9583333333333334,3.729769565217391,1.4314377547940402
5d91daf3704e790018f47229,0,23,23.0,1.0,1.4552173913043476,0.38558773987036976
5d91daf3704e790018f47229,50,24,24.0,1.0,1.9530416666666666,0.6074387053827748
5d91daf3704e790018f47229,100,24,17.0,0.7083333333333334,2.5244705882352942,0.7928114622694871
5d91daf3704e790018f47229,150,23,16.0,0.6956521739130435,2.1960625000000005,0.7902823519687969
66625801c143ca548bcac338,0,23,20.0,0.8695652173913043,1.2435450000000001,0.6687648445770047
66625801c143ca548bcac338,50,23,20.0,0.8695652173913043,1.4578150000000003,0.6452686297194371
66625801c143ca548bcac338,100,23,22.0,0.9565217391304348,1.6209909090909091,0.5668455209978506
66625801c143ca548bcac338,150,23,18.0,0.782608695652174,1.7147888888888891,0.7969778127319029
653d3b418bce22526d2639b4,0,23,21.0,0.9130434782608695,1.9712238095238097,1.067905037868425
653d3b418bce22526d2639b4,50,24,22.0,0.9166666666666666,2.2123727272727267,1.0364888684683857
653d3b418bce22526d2639b4,100,24,24.0,1.0,2.713108333333334,0.892348689361842
653d3b418bce22526d2639b4,150,22,21.0,0.9545454545454546,2.253804761904762,0.9255076631104631
6779d0e560ce37d982f31caf,0,24,23.0,0.9583333333333334,2.5923739130434784,0.7255720922876784
6779d0e560ce37d982f31caf,50,23,21.0,0.9130434782608695,2.8299571428571424,0.5788221346591962
6779d0e560ce37d982f31caf,100,23,23.0,1.0,3.3881478260869566,0.9004224987443724
6779d0e560ce37d982f31caf,150,24,24.0,1.0,3.4955291666666675,1.0865111134024823
678b95e7567348686a870e6b,0,24,24.0,1.0,1.2926625,0.42309008272213855
678b95e7567348686a870e6b,50,23,22.0,0.9565217391304348,1.3879818181818182,0.3945954174381698
678b95e7567348686a870e6b,100,23,20.0,0.8695652173913043,1.88443,0.518836553819165
678b95e7567348686a870e6b,150,24,20.0,0.8333333333333334,2.4061749999999997,0.914227876047381
67094b39bddd9489c48cdc8f,0,23,23.0,1.0,2.115086956521739,0.7339890953514648
67094b39bddd9489c48cdc8f,50,24,17.0,0.7083333333333334,2.684117647058823,0.6639996124201563
67094b39bddd9489c48cdc8f,100,24,16.0,0.6666666666666666,2.8294375,0.7000141873562278
67094b39bddd9489c48cdc8f,150,24,8.0,0.3333333333333333,3.0638749999999995,0.6232849468742208
654e6dcbb060f1ea2d712339,0,23,23.0,1.0,2.525621739130435,0.7685148918865421
654e6dcbb060f1ea2d712339,50,23,19.0,0.8260869565217391,3.923221052631579,1.3028947687442192
654e6dcbb060f1ea2d712339,100,24,15.0,0.625,4.409433333333333,1.3409506540759308
654e6dcbb060f1ea2d712339,150,24,18.0,0.75,4.753888888888889,1.2658084702666088
65cba5349f4e1e5dfbe80fe8,0,24,24.0,1.0,1.4882916666666668,0.5986745126539539
65cba5349f4e1e5dfbe80fe8,50,24,22.0,0.9166666666666666,1.6265454545454545,0.4653170682727789
65cba5349f4e1e5dfbe80fe8,100,23,22.0,0.9565217391304348,2.3789545454545458,0.5753564921625488
65cba5349f4e1e5dfbe80fe8,150,24,24.0,1.0,2.882916666666667,1.3289148537080158
672d770786fa273d84b761d2,0,23,23.0,1.0,1.8518521739130434,0.8056753575104584
672d770786fa273d84b761d2,50,23,22.0,0.9565217391304348,2.541536363636364,1.3110152015193108
672d770786fa273d84b761d2,100,23,22.0,0.9565217391304348,2.578859090909091,0.5881500267457607
672d770786fa273d84b761d2,150,24,22.0,0.9166666666666666,3.0832590909090913,0.88430657723013
66fb8a3730fd6deba2e671e3,0,23,22.0,0.9565217391304348,2.02685,0.901369741665692
66fb8a3730fd6deba2e671e3,50,24,21.0,0.875,3.056209523809524,1.1260654962766425
66fb8a3730fd6deba2e671e3,100,22,21.0,0.9545454545454546,3.8295,0.9876538609249701
66fb8a3730fd6deba2e671e3,150,24,18.0,0.75,3.7297222222222235,1.1699899660482542
67813733b9f7bd24cb2745b4,0,23,23.0,1.0,1.8179130434782604,0.9716270755351784
67813733b9f7bd24cb2745b4,50,23,23.0,1.0,2.2312608695652174,0.7358339867976216
67813733b9f7bd24cb2745b4,100,23,20.0,0.8695652173913043,3.3512500000000003,1.6317482028083932
67813733b9f7bd24cb2745b4,150,24,23.0,0.9583333333333334,2.6220434782608697,1.3329806817893932
5f81fc9446ee002f681ea5e3,0,23,22.0,0.9565217391304348,1.6498272727272727,0.5282510849440716
5f81fc9446ee002f681ea5e3,50,24,23.0,0.9583333333333334,2.5270956521739136,1.1319276749615559
5f81fc9446ee002f681ea5e3,100,24,23.0,0.9583333333333334,2.864904347826087,1.087899521378974
5f81fc9446ee002f681ea5e3,150,23,22.0,0.9565217391304348,2.842763636363636,1.1446259657511975
66969c9921e4f92ad108ed4c,0,22,20.0,0.9090909090909091,1.464505,0.455349726179317
66969c9921e4f92ad108ed4c,50,24,23.0,0.9583333333333334,2.134678260869565,0.8116388123904968
66969c9921e4f92ad108ed4c,100,24,20.0,0.8333333333333334,2.68987,1.0927699493537175
66969c9921e4f92ad108ed4c,150,24,19.0,0.7916666666666666,2.5387157894736845,1.0111950445241389
66dd097265650e0dec23231f,0,23,22.0,0.9565217391304348,2.0178,0.7006519780074228
66dd097265650e0dec23231f,50,24,23.0,0.9583333333333334,2.492391304347826,0.7626582094663397
66dd097265650e0dec23231f,100,24,20.0,0.8333333333333334,3.0552599999999996,1.026916592420959
66dd097265650e0dec23231f,150,22,20.0,0.9090909090909091,3.009,1.0954342037460953
67896102d98295a520a25ebb,0,24,24.0,1.0,2.2167,0.9921515167422328
67896102d98295a520a25ebb,50,23,22.0,0.9565217391304348,2.5157181818181815,0.9419109742768704
67896102d98295a520a25ebb,100,24,22.0,0.9166666666666666,3.064290909090909,1.0739917654686055
67896102d98295a520a25ebb,150,24,18.0,0.75,2.728683333333333,1.022508104527064
677fafc0a5ea31abbf20ebad,0,24,24.0,1.0,2.878987499999999,1.017658335212885
677fafc0a5ea31abbf20ebad,50,23,22.0,0.9565217391304348,3.0917000000000003,1.007665138539868
677fafc0a5ea31abbf20ebad,100,23,19.0,0.8260869565217391,3.853305263157895,1.2791550550933066
677fafc0a5ea31abbf20ebad,150,23,17.0,0.7391304347826086,4.833282352941177,1.0630788624528837
590ffed3f128850001ada77b,0,23,23.0,1.0,1.6693913043478261,0.49906309850016456
590ffed3f128850001ada77b,50,24,22.0,0.9166666666666666,1.9873181818181818,0.5876398626923707
590ffed3f128850001ada77b,100,23,22.0,0.9565217391304348,2.7482272727272723,0.8559248927785207
590ffed3f128850001ada77b,150,23,20.0,0.8695652173913043,2.72755,0.9269426527994854
67842352fc58491ff1f4de9d,0,23,23.0,1.0,2.775839130434783,1.6186751411231712
67842352fc58491ff1f4de9d,50,23,22.0,0.9565217391304348,2.8506454545454547,0.9186498943077762
67842352fc58491ff1f4de9d,100,24,23.0,0.9583333333333334,3.8642565217391303,1.535389566741965
67842352fc58491ff1f4de9d,150,24,24.0,1.0,3.5125000000000006,1.2494885162233036
6779e07aeb6a0e66e84ae0e7,0,23,23.0,1.0,1.4807304347826085,0.6904812514305332
6779e07aeb6a0e66e84ae0e7,50,24,24.0,1.0,1.840025,0.6074791227402119
6779e07aeb6a0e66e84ae0e7,100,23,21.0,0.9130434782608695,2.2321523809523813,0.665867116337072
6779e07aeb6a0e66e84ae0e7,150,24,23.0,0.9583333333333334,2.460339130434783,0.6993159883636493
6501c0a2e788b5556c24569d,0,23,20.0,0.8695652173913043,1.58677,0.6493270873920575
6501c0a2e788b5556c24569d,50,23,23.0,1.0,2.455230434782609,0.9683153540767138
6501c0a2e788b5556c24569d,100,22,20.0,0.9090909090909091,2.770765,0.7752276625034263
6501c0a2e788b5556c24569d,150,23,18.0,0.782608695652174,3.295633333333333,0.8815427679725505
66243f204cef464daff99f8d,0,23,23.0,1.0,1.4254347826086955,0.5701052626957233
66243f204cef464daff99f8d,50,23,23.0,1.0,2.366104347826087,0.9304398761672112
66243f204cef464daff99f8d,100,23,21.0,0.9130434782608695,2.9017666666666666,1.0146785295517655
66243f204cef464daff99f8d,150,24,21.0,0.875,3.6169619047619044,1.4286271040674645
6643bcf4ed868a9901a9dd7d,0,23,22.0,0.9565217391304348,1.0341363636363636,0.22141499399792142
6643bcf4ed868a9901a9dd7d,50,23,23.0,1.0,1.3352608695652175,0.295809400765134
6643bcf4ed868a9901a9dd7d,100,23,20.0,0.8695652173913043,1.5719499999999997,0.4795811193114258
6643bcf4ed868a9901a9dd7d,150,24,24.0,1.0,1.6750833333333333,0.44422310460698317
676e81c9c452593cbf114baf,0,24,20.0,0.8333333333333334,2.87728,1.3430546536670955
676e81c9c452593cbf114baf,50,23,20.0,0.8695652173913043,3.41524,1.1825701921528469
676e81c9c452593cbf114baf,100,24,23.0,0.9583333333333334,3.8982434782608695,1.2204427020277544
676e81c9c452593cbf114baf,150,22,16.0,0.7272727272727273,3.93165625,1.2783443151038507
6747d17ec4d287d32e597fa9,0,24,24.0,1.0,1.8564499999999997,0.6193277849551007
6747d17ec4d287d32e597fa9,50,24,22.0,0.9166666666666666,2.1793454545454547,0.4213118262977613
6747d17ec4d287d32e597fa9,100,23,20.0,0.8695652173913043,1.9963000000000002,0.5142419203367019
6747d17ec4d287d32e597fa9,150,24,16.0,0.6666666666666666,2.32870625,0.4937074956810628
5cf398a1e55efc000127adae,0,22,20.0,0.9090909090909091,1.2617650000000002,0.2630799163652308
5cf398a1e55efc000127adae,50,23,17.0,0.7391304347826086,1.6231588235294114,0.531459064814525
5cf398a1e55efc000127adae,100,23,10.0,0.43478260869565216,1.8138399999999997,0.5100399618330574
5cf398a1e55efc000127adae,150,23,17.0,0.7391304347826086,1.841494117647059,0.6654735179466087
5d76d2f7daf4bf00164d585b,0,22,22.0,1.0,1.8630636363636368,0.9052888823571624
5d76d2f7daf4bf00164d585b,50,21,20.0,0.9523809523809523,4.6335500000000005,1.695652994695864
5d76d2f7daf4bf00164d585b,100,22,15.0,0.6818181818181818,5.304660000000001,1.4007210473793235
5d76d2f7daf4bf00164d585b,150,21,15.0,0.7142857142857143,5.7643466666666665,1.1664891817921395
610b002738dd01f26e493999,0,24,23.0,0.9583333333333334,2.9459130434782614,1.2301989056853395
610b002738dd01f26e493999,50,24,22.0,0.9166666666666666,3.6706772727272723,1.4254532659012005
610b002738dd01f26e493999,100,22,20.0,0.9090909090909091,3.9761900000000003,1.4017375476622989
610b002738dd01f26e493999,150,23,19.0,0.8260869565217391,3.938821052631578,1.6878081603662278
678553764d429ce5b3d40f4c,0,23,20.0,0.8695652173913043,1.5819699999999999,0.5024206353665276
678553764d429ce5b3d40f4c,50,24,20.0,0.8333333333333334,2.193095,0.7258734212367159
678553764d429ce5b3d40f4c,100,24,21.0,0.875,2.391190476190476,0.8085975636277677
678553764d429ce5b3d40f4c,150,23,17.0,0.7391304347826086,2.0402764705882355,0.6229518285242966
5ec0ba1bfa01894cceaa1b8e,0,24,23.0,0.9583333333333334,1.7778695652173913,0.673774058726988
5ec0ba1bfa01894cceaa1b8e,50,24,22.0,0.9166666666666666,1.9780000000000002,0.7806441174410003
5ec0ba1bfa01894cceaa1b8e,100,23,21.0,0.9130434782608695,2.338761904761905,0.8249355674694784
5ec0ba1bfa01894cceaa1b8e,150,23,22.0,0.9565217391304348,2.3926818181818184,0.7565439833223835
678e9a84c6c7879d007bbf4e,0,22,19.0,0.8636363636363636,1.6393052631578946,0.41441356889208075
678e9a84c6c7879d007bbf4e,50,23,21.0,0.9130434782608695,2.0937000000000006,0.9812319766497625
678e9a84c6c7879d007bbf4e,100,23,18.0,0.782608695652174,2.5712111111111113,0.9601924849240256
678e9a84c6c7879d007bbf4e,150,23,21.0,0.9130434782608695,3.3150999999999997,1.0377556248944162
678969200a76abe09fd2a75c,0,22,21.0,0.9545454545454546,2.7641666666666667,0.9022530229006348
678969200a76abe09fd2a75c,50,24,19.0,0.7916666666666666,3.4180000000000006,1.438168697027964
678969200a76abe09fd2a75c,100,24,20.0,0.8333333333333334,3.729145,0.9502047355424874
678969200a76abe09fd2a75c,150,23,12.0,0.5217391304347826,4.1452833333333325,1.0355362456527564
677fe9d3bafd440269d2ef89,0,21,19.0,0.9047619047619048,1.7391052631578947,0.5388534014962637
677fe9d3bafd440269d2ef89,50,24,21.0,0.875,2.8953809523809517,0.9476973924302249
677fe9d3bafd440269d2ef89,100,24,21.0,0.875,3.067380952380952,0.9661267761629669
677fe9d3bafd440269d2ef89,150,23,19.0,0.8260869565217391,3.085473684210526,0.9354994131728698
6636a7456e7f277f59dda9bd,0,22,21.0,0.9545454545454546,1.3353666666666668,0.40680521424059124
6636a7456e7f277f59dda9bd,50,23,23.0,1.0,2.4199043478260873,1.0789300244721665
6636a7456e7f277f59dda9bd,100,21,18.0,0.8571428571428571,3.513516666666667,1.9440692892668687
6636a7456e7f277f59dda9bd,150,23,22.0,0.9565217391304348,2.258318181818182,0.9052194843747979
6773f4dfb59cda6e2414cb19,0,24,22.0,0.9166666666666666,1.5305318181818182,0.6797089968272934
6773f4dfb59cda6e2414cb19,50,24,23.0,0.9583333333333334,2.214265217391304,0.7236481130096662
6773f4dfb59cda6e2414cb19,100,24,23.0,0.9583333333333334,2.996295652173913,0.8617678797777281
6773f4dfb59cda6e2414cb19,150,24,20.0,0.8333333333333334,3.402634999999999,1.4314276974129891
66463d3560eac977430ac716,0,23,20.0,0.8695652173913043,2.243935,1.6643304044048213
66463d3560eac977430ac716,50,24,21.0,0.875,3.7789523809523806,1.8704236529778615
66463d3560eac977430ac716,100,23,17.0,0.7391304347826086,3.8114117647058823,1.4872958930901885
66463d3560eac977430ac716,150,24,18.0,0.75,3.955983333333334,1.4954524974263892
657ca800404c8884226c8f42,0,24,24.0,1.0,2.1679583333333334,1.1599918844980983
657ca800404c8884226c8f42,50,24,22.0,0.9166666666666666,2.831090909090909,1.2613754363162426
657ca800404c8884226c8f42,100,22,22.0,1.0,2.833681818181818,0.8853571991743615
657ca800404c8884226c8f42,150,23,18.0,0.782608695652174,2.878888888888888,1.3297215493075274
564e93659b124900127eb55b,0,24,24.0,1.0,1.5583999999999998,0.6637718243362012
564e93659b124900127eb55b,50,24,24.0,1.0,1.8492500000000005,0.7155385007719407
564e93659b124900127eb55b,100,23,20.0,0.8695652173913043,2.3023800000000003,0.5480840797964449
564e93659b124900127eb55b,150,24,23.0,0.9583333333333334,2.266613043478261,0.7091287774473355
65de5ddcc637719fe458fc76,0,24,22.0,0.9166666666666666,2.9691227272727274,1.5236231254829697
65de5ddcc637719fe458fc76,50,22,19.0,0.8636363636363636,3.335168421052631,1.2977996549941457
65de5ddcc637719fe458fc76,100,23,17.0,0.7391304347826086,3.7388352941176466,1.55297828862044
65de5ddcc637719fe458fc76,150,24,20.0,0.8333333333333334,4.4307099999999995,1.3723669337853373
57dd186e6598aa0001992616,0,23,22.0,0.9565217391304348,2.876909090909091,1.1050911248395463
57dd186e6598aa0001992616,50,24,21.0,0.875,3.3329571428571425,0.9778411596836311
57dd186e6598aa0001992616,100,23,16.0,0.6956521739130435,3.34574375,1.279058336938416
57dd186e6598aa0001992616,150,24,22.0,0.9166666666666666,3.3658363636363635,0.9566875115758514
5da6139c002c29001335b5a2,0,24,22.0,0.9166666666666666,1.7694090909090912,0.948753863363282
5da6139c002c29001335b5a2,50,22,19.0,0.8636363636363636,1.9056631578947372,0.7201021804118621
5da6139c002c29001335b5a2,100,22,19.0,0.8636363636363636,2.346036842105263,0.8000045424944134
5da6139c002c29001335b5a2,150,23,21.0,0.9130434782608695,2.439428571428572,0.7428276880561582
6787a95f87a6e4a695780b13,0,24,21.0,0.875,3.140919047523809,1.2280259438737609
6787a95f87a6e4a695780b13,50,24,14.0,0.5833333333333334,3.8906285713571434,1.5260772035246972
6787a95f87a6e4a695780b13,100,23,14.0,0.6086956521739131,4.728071428714285,1.478717962517348
6787a95f87a6e4a695780b13,150,21,13.0,0.6190476190476191,4.274269230615384,1.5925753301574044
675c3fae9f1afa4c4207dab3,0,23,23.0,1.0,1.6369130434782608,0.5520926234085494
675c3fae9f1afa4c4207dab3,50,23,22.0,0.9565217391304348,1.8184090909090913,0.6162751132014949
675c3fae9f1afa4c4207dab3,100,23,23.0,1.0,1.8135652173913044,0.4349899503632194
675c3fae9f1afa4c4207dab3,150,23,20.0,0.8695652173913043,2.18185,0.7211077936064759
6739ff11a2162a865c36fa64,0,23,18.0,0.782608695652174,2.715666666666667,1.2576438208014225
6739ff11a2162a865c36fa64,50,24,20.0,0.8333333333333334,3.329710000000001,0.774402751802962
6739ff11a2162a865c36fa64,100,22,16.0,0.7272727272727273,4.26310625,1.0426618764609166
6739ff11a2162a865c36fa64,150,22,15.0,0.6818181818181818,4.826913333333334,1.6228293096875446
5f4d3cb5fdda0b2c403fb801,0,22,17.0,0.7727272727272727,2.1050294117647064,1.1313820181335226
5f4d3cb5fdda0b2c403fb801,50,23,20.0,0.8695652173913043,3.5150750000000004,1.4008640077785828
5f4d3cb5fdda0b2c403fb801,100,24,20.0,0.8333333333333334,3.9919950000000006,1.4786179359455909
5f4d3cb5fdda0b2c403fb801,150,24,16.0,0.6666666666666666,4.5686687500000005,1.278733971144246
677b43188ec54f1186b62411,0,24,23.0,0.9583333333333334,2.625086956521739,1.1085387971659515
677b43188ec54f1186b62411,50,24,21.0,0.875,2.788761904761905,1.0470456009535547
677b43188ec54f1186b62411,100,23,20.0,0.8695652173913043,2.9802,0.7726824499243222
677b43188ec54f1186b62411,150,23,13.0,0.5652173913043478,3.5263076923076926,0.7436833314226544
5e80b109ca1800791e1ca40c,0,24,18.0,0.75,2.4144666666666668,1.08441979444689
5e80b109ca1800791e1ca40c,50,24,17.0,0.7083333333333334,4.0381,1.2480867893500036
5e80b109ca1800791e1ca40c,100,21,18.0,0.8571428571428571,3.635194444444444,1.001246014589834
5e80b109ca1800791e1ca40c,150,23,11.0,0.4782608695652174,3.5169545454545452,0.9604620121208713
6751f6e990f3b3698bf1748b,0,23,23.0,1.0,2.071860869565217,0.875501751069912
6751f6e990f3b3698bf1748b,50,24,21.0,0.875,3.583409523809524,1.464144640021867
6751f6e990f3b3698bf1748b,100,24,24.0,1.0,3.5592624999999996,1.1119604731059463
6751f6e990f3b3698bf1748b,150,23,21.0,0.9130434782608695,3.2991142857142854,0.6500352869542654
5b8bf5dd7b334200011da4aa,0,24,20.0,0.8333333333333334,1.6267299999999998,0.9188387717800744
5b8bf5dd7b334200011da4aa,50,23,22.0,0.9565217391304348,1.7819363636363639,0.6483883422951421
5b8bf5dd7b334200011da4aa,100,24,23.0,0.9583333333333334,2.929486956521739,1.2066002792611328
5b8bf5dd7b334200011da4aa,150,24,21.0,0.875,3.243523809523809,1.2666256763167096
6738c218706186b3fe8e8f56,0,23,18.0,0.782608695652174,2.7598388888888885,1.2054779033468495
6738c218706186b3fe8e8f56,50,23,16.0,0.6956521739130435,3.4755187500000004,1.019003188231028
6738c218706186b3fe8e8f56,100,23,19.0,0.8260869565217391,4.049136842105263,1.416598424321259
6738c218706186b3fe8e8f56,150,23,15.0,0.6521739130434783,4.274780000000001,1.6264504604462178
6111ec391b7048bb53089f5d,0,22,19.0,0.8636363636363636,1.4524947368421053,0.7056975315826685
6111ec391b7048bb53089f5d,50,22,17.0,0.7727272727272727,1.5249117647058823,0.9656796893136673
6111ec391b7048bb53089f5d,100,22,17.0,0.7727272727272727,3.4543117647058823,1.9060217344912258
6111ec391b7048bb53089f5d,150,21,16.0,0.7619047619047619,2.9796312499999997,1.3093426008083855
5c2c62542c45d400014a32e6,0,23,22.0,0.9565217391304348,1.4849090909090905,0.5857939731347865
5c2c62542c45d400014a32e6,50,23,22.0,0.9565217391304348,1.6003045454545457,0.41242322515229624
5c2c62542c45d400014a32e6,100,24,24.0,1.0,2.345166666666666,0.5667262199738046
5c2c62542c45d400014a32e6,150,23,20.0,0.8695652173913043,2.8097450000000004,1.1184246281806622
6778cbf3f0597689c7b5cb4a,0,23,17.0,0.7391304347826086,2.6917647058823526,1.2424743523213952
6778cbf3f0597689c7b5cb4a,50,24,12.0,0.5,2.747533333333333,1.2298305850314455
6778cbf3f0597689c7b5cb4a,100,24,13.0,0.5416666666666666,2.677176923076923,1.37427848836753
6778cbf3f0597689c7b5cb4a,150,24,17.0,0.7083333333333334,2.750058823529411,1.6039127267633764
610466e3fb619bdbdf8eb32d,0,16,14.0,0.875,1.604471428571428,0.43760874767759844
610466e3fb619bdbdf8eb32d,50,15,9.0,0.6,2.665811111111111,0.8743234676657782
610466e3fb619bdbdf8eb32d,100,19,12.0,0.631578947368421,2.8653416666666662,1.0452681225915488
610466e3fb619bdbdf8eb32d,150,15,8.0,0.5333333333333333,2.239825,0.7134801724144627
67719f52af5175c7f6b1c990,0,24,24.0,1.0,2.996745833333333,1.6110478658527936
67719f52af5175c7f6b1c990,50,23,21.0,0.9130434782608695,3.7326714285714293,1.324213241567557
67719f52af5175c7f6b1c990,100,23,16.0,0.6956521739130435,5.0246625,1.204061342221954
67719f52af5175c7f6b1c990,150,21,16.0,0.7619047619047619,5.48901875,0.9693778095381594
6786d6d81286c8386e009009,0,23,21.0,0.9130434782608695,1.8168000000000002,0.8062883615679939
6786d6d81286c8386e009009,50,24,22.0,0.9166666666666666,2.536231818181818,1.0104394425370737
6786d6d81286c8386e009009,100,22,19.0,0.8636363636363636,2.311726315789474,0.9462553553889876
6786d6d81286c8386e009009,150,24,21.0,0.875,2.814409523809524,0.8777912541742267
674e978e575eccb8dd86167b,0,23,22.0,0.9565217391304348,2.8909545454545458,1.1834727138815513
674e978e575eccb8dd86167b,50,22,9.0,0.4090909090909091,5.012555555555555,1.1729812563625122
674e978e575eccb8dd86167b,100,23,12.0,0.5217391304347826,5.6194999999999995,0.7791408438436883
674e978e575eccb8dd86167b,150,22,12.0,0.5454545454545454,5.855916666666666,0.8518460657284093
5f974c72a0ed8c0f9ce724ea,0,23,23.0,1.0,1.5313043478260868,0.57204508998875
5f974c72a0ed8c0f9ce724ea,50,24,23.0,0.9583333333333334,1.9564347826086959,0.7178778590772665
5f974c72a0ed8c0f9ce724ea,100,23,23.0,1.0,1.8948695652173912,0.4878358800352865
5f974c72a0ed8c0f9ce724ea,150,23,22.0,0.9565217391304348,1.8780909090909093,0.5335338529975134
676ef830be06454935800ec3,0,24,24.0,1.0,1.22175,0.48902060506067946
676ef830be06454935800ec3,50,23,22.0,0.9565217391304348,1.203090909090909,0.2707384802264441
676ef830be06454935800ec3,100,23,23.0,1.0,1.4911739130434782,0.5809944180747282
676ef830be06454935800ec3,150,23,22.0,0.9565217391304348,1.5949545454545453,0.46902020235428044
66d9fc2d2b46f520118ea65f,0,23,22.0,0.9565217391304348,2.253104545454546,1.4989944424679442
66d9fc2d2b46f520118ea65f,50,23,20.0,0.8695652173913043,3.29446,1.683091986853519
66d9fc2d2b46f520118ea65f,100,23,21.0,0.9130434782608695,3.9240666666666666,1.422272401944625
66d9fc2d2b46f520118ea65f,150,21,19.0,0.9047619047619048,3.9739421052631583,1.3746624217182233
66b0103854c074757187d029,0,24,19.0,0.7916666666666666,1.7340894736842103,0.6535696731495569
66b0103854c074757187d029,50,24,14.0,0.5833333333333334,2.1457214285714286,0.8095039726975938
66b0103854c074757187d029,100,24,17.0,0.7083333333333334,2.704058823529412,1.0968219967586033
66b0103854c074757187d029,150,24,11.0,0.4583333333333333,2.441990909090909,0.7869924312908549
664d46ad7cc1780eecfd0c24,0,24,23.0,0.9583333333333334,2.257695652173913,0.8842444866963912
664d46ad7cc1780eecfd0c24,50,24,24.0,1.0,1.7959166666666668,0.6203845172756669
664d46ad7cc1780eecfd0c24,100,24,20.0,0.8333333333333334,1.9726999999999997,0.6204385630554534
664d46ad7cc1780eecfd0c24,150,24,21.0,0.875,2.329428571428571,0.7288589418693147
64143c6c286640f3d1348cf8,0,23,22.0,0.9565217391304348,1.5763272727272728,0.663405539392738
64143c6c286640f3d1348cf8,50,23,21.0,0.9130434782608695,1.797438095238095,0.5700020705893888
64143c6c286640f3d1348cf8,100,24,22.0,0.9166666666666666,2.475318181818182,0.78181427866236
64143c6c286640f3d1348cf8,150,22,22.0,1.0,2.0869545454545455,0.48087146557778454
67253dbcd4950a2168aa7741,0,23,19.0,0.8260869565217391,2.380157894736843,0.7991092445938299
67253dbcd4950a2168aa7741,50,23,22.0,0.9565217391304348,2.659227272727273,1.0949165626753388
67253dbcd4950a2168aa7741,100,24,22.0,0.9166666666666666,2.9755454545454545,0.9820567206620007
67253dbcd4950a2168aa7741,150,24,21.0,0.875,3.1743809523809525,1.311245037214268
6643bef326f3a4026c0ab2b6,0,23,22.0,0.9565217391304348,1.5977409090909092,0.6095352356384727
6643bef326f3a4026c0ab2b6,50,24,24.0,1.0,2.2194624999999992,0.7625135116764361
6643bef326f3a4026c0ab2b6,100,24,23.0,0.9583333333333334,3.1477869565217382,0.9694932314004185
6643bef326f3a4026c0ab2b6,150,22,21.0,0.9545454545454546,2.6824428571428576,0.7888541300972116
5eec6fe1a0f1c4000a8103b2,0,24,23.0,0.9583333333333334,2.4475565217391306,1.383305442779618
5eec6fe1a0f1c4000a8103b2,50,24,22.0,0.9166666666666666,2.458972727272727,0.6978799891247629
5eec6fe1a0f1c4000a8103b2,100,23,21.0,0.9130434782608695,3.9389619047619053,1.0913719276562828
5eec6fe1a0f1c4000a8103b2,150,23,20.0,0.8695652173913043,3.8420049999999994,1.1980728518728472
66cfb812269143794dc55575,0,24,20.0,0.8333333333333334,3.0882949999999996,1.7235270582442273
66cfb812269143794dc55575,50,24,12.0,0.5,4.350791666666666,1.543547569404698
66cfb812269143794dc55575,100,23,16.0,0.6956521739130435,4.614575,0.4933683566396748
66cfb812269143794dc55575,150,22,14.0,0.6363636363636364,4.619957142857143,1.2881163054955544
677d1f4f3c247c1a7a6fb57f,0,23,22.0,0.9565217391304348,1.9579181818181821,1.0328595482060212
677d1f4f3c247c1a7a6fb57f,50,23,17.0,0.7391304347826086,3.0688,0.9095537154286161
677d1f4f3c247c1a7a6fb57f,100,23,20.0,0.8695652173913043,3.59246,1.4574350054660739
677d1f4f3c247c1a7a6fb57f,150,23,20.0,0.8695652173913043,2.99333,1.067930523119611
67824ed63aa44baedbe5d46f,0,24,21.0,0.875,2.158561904761905,0.903331497002175
67824ed63aa44baedbe5d46f,50,23,17.0,0.7391304347826086,2.373941176470588,1.5059812308171472
67824ed63aa44baedbe5d46f,100,23,17.0,0.7391304347826086,2.696476470588235,1.4148868579012828
67824ed63aa44baedbe5d46f,150,23,17.0,0.7391304347826086,2.6519882352941178,1.5397782096305108
6783e8710446ee858344b1b2,0,24,20.0,0.8333333333333334,1.2862050000000003,0.4581355389826764
6783e8710446ee858344b1b2,50,24,19.0,0.7916666666666666,2.0386421052631576,0.7698666351430179
6783e8710446ee858344b1b2,100,24,20.0,0.8333333333333334,2.569615,0.8216007650505074
6783e8710446ee858344b1b2,150,24,14.0,0.5833333333333334,2.594071428571429,1.0345731371169251
678e46af9bf54902d3db189f,0,24,23.0,0.9583333333333334,2.661739130434783,0.984509423630567
678e46af9bf54902d3db189f,50,22,16.0,0.7272727272727273,3.4689062499999994,1.232636192052762
678e46af9bf54902d3db189f,100,23,20.0,0.8695652173913043,4.025995,1.1646432155159656
678e46af9bf54902d3db189f,150,23,17.0,0.7391304347826086,3.787141176470588,1.1228257673492932
60ff8f48909c68ae805ea2ba,0,24,24.0,1.0,1.6585916666666665,0.5180157265672679
60ff8f48909c68ae805ea2ba,50,24,21.0,0.875,2.4783523809523813,0.9515317638518682
60ff8f48909c68ae805ea2ba,100,22,18.0,0.8181818181818182,2.7341222222222226,0.7944750612867191
60ff8f48909c68ae805ea2ba,150,23,19.0,0.8260869565217391,2.935457894736842,1.1062702037405738
667998e5c55fe7def1eb7496,0,23,23.0,1.0,1.2987130434782608,0.3691229547606398
667998e5c55fe7def1eb7496,50,23,20.0,0.8695652173913043,1.6033800000000002,0.5035747752973628
667998e5c55fe7def1eb7496,100,23,20.0,0.8695652173913043,2.1835499999999994,0.5737701488263488
667998e5c55fe7def1eb7496,150,23,22.0,0.9565217391304348,2.320363636363636,0.6232495865912364
677f7658861507001fe69579,0,23,22.0,0.9565217391304348,1.7441727272727272,0.9694366666520052
677f7658861507001fe69579,50,24,19.0,0.7916666666666666,2.5715105263157896,1.4595462757289173
677f7658861507001fe69579,100,23,20.0,0.8695652173913043,2.64486,1.0752293559001604
677f7658861507001fe69579,150,24,21.0,0.875,2.817085714285714,0.8562314431774356
673d1231929c7a0a6138a5c1,0,24,23.0,0.9583333333333334,2.0999304347826087,0.7010182622668403
673d1231929c7a0a6138a5c1,50,24,24.0,1.0,2.7207208333333335,0.9105772464327311
673d1231929c7a0a6138a5c1,100,23,17.0,0.7391304347826086,3.492805882352942,1.1006544822687252
673d1231929c7a0a6138a5c1,150,22,13.0,0.5909090909090909,3.841907692307693,1.4614613972901338
66c8abe49537b182dcbd2049,0,23,22.0,0.9565217391304348,1.2974136363636364,0.3436202434519199
66c8abe49537b182dcbd2049,50,23,22.0,0.9565217391304348,1.6528136363636359,0.6989154505003106
66c8abe49537b182dcbd2049,100,24,19.0,0.7916666666666666,2.050715789473684,0.7845545758674918
66c8abe49537b182dcbd2049,150,23,17.0,0.7391304347826086,2.115535294117647,0.7557955782990998
6033fd8bc8659800086d87b0,0,23,22.0,0.9565217391304348,1.0359545454545456,0.30057879677980126
6033fd8bc8659800086d87b0,50,24,23.0,0.9583333333333334,2.061182608695652,0.8090899330011433
6033fd8bc8659800086d87b0,100,24,24.0,1.0,2.5501958333333334,0.9081277277904711
6033fd8bc8659800086d87b0,150,24,23.0,0.9583333333333334,2.4004695652173913,0.7876579238100201
6757688470f9e929a8ea7d90,0,24,18.0,0.75,2.3768888888888893,1.068440528714019
6757688470f9e929a8ea7d90,50,23,14.0,0.6086956521739131,2.8372857142857137,0.9590829296437644
6757688470f9e929a8ea7d90,100,24,16.0,0.6666666666666666,3.5473125000000003,1.4510458627601448
6757688470f9e929a8ea7d90,150,23,10.0,0.43478260869565216,3.6709999999999994,1.939675345114343
5e375b7e76397a6f27f9547f,0,23,22.0,0.9565217391304348,1.0718636363636367,0.4277557486691214
5e375b7e76397a6f27f9547f,50,23,21.0,0.9130434782608695,1.6799523809523809,0.6100664288575857
5e375b7e76397a6f27f9547f,100,23,19.0,0.8260869565217391,1.8714210526315795,0.5109793772517714
5e375b7e76397a6f27f9547f,150,23,19.0,0.8260869565217391,2.1187368421052635,0.648636590781452
6631185d17f78b1877ba88cb,0,24,21.0,0.875,2.204052380952381,1.2326005028471503
6631185d17f78b1877ba88cb,50,23,18.0,0.782608695652174,2.7683999999999993,0.7838433622035643
6631185d17f78b1877ba88cb,100,24,20.0,0.8333333333333334,3.0871649999999997,0.9068592487986097
6631185d17f78b1877ba88cb,150,24,16.0,0.6666666666666666,3.18216875,0.8752725059231552
678dfec50cc874af0b76ab04,0,24,21.0,0.875,2.4392714285714288,1.3779811599375578
678dfec50cc874af0b76ab04,50,24,19.0,0.7916666666666666,4.101226315789472,1.9101781699453253
678dfec50cc874af0b76ab04,100,22,16.0,0.7272727272727273,3.45436875,1.444477970164885
678dfec50cc874af0b76ab04,150,24,17.0,0.7083333333333334,3.940341176470588,1.7821580520743747
66049315b5c325fdaafea8fa,0,23,21.0,0.9130434782608695,1.5410142857142857,0.7726026677961411
66049315b5c325fdaafea8fa,50,24,24.0,1.0,2.031516666666666,0.8275826104392534
66049315b5c325fdaafea8fa,100,23,20.0,0.8695652173913043,2.0529750000000004,0.6605653351286943
66049315b5c325fdaafea8fa,150,23,20.0,0.8695652173913043,2.592445,0.7355849498152723
67693470121578a6dff417d2,0,24,22.0,0.9166666666666666,2.9342681818181826,1.5203906075136038
67693470121578a6dff417d2,50,23,19.0,0.8260869565217391,3.4514789473684204,1.4317571393916044
67693470121578a6dff417d2,100,24,17.0,0.7083333333333334,3.7388411764705887,1.3547514472490993
67693470121578a6dff417d2,150,24,19.0,0.7916666666666666,3.4810105263157896,1.5205558866176163
65d5d1d59bfc5f7fcbbd742d,0,24,24.0,1.0,1.7352416666666672,0.7093573545465468
65d5d1d59bfc5f7fcbbd742d,50,24,22.0,0.9166666666666666,2.5092954545454544,1.2086508769530213
65d5d1d59bfc5f7fcbbd742d,100,23,14.0,0.6086956521739131,2.7250785714285715,0.6073625316811285
65d5d1d59bfc5f7fcbbd742d,150,24,21.0,0.875,3.1200142857142854,0.9219916270149715
565a3d24c51d430005875042,0,23,21.0,0.9130434782608695,1.9458285714285715,0.6212471659032798
565a3d24c51d430005875042,50,23,21.0,0.9130434782608695,2.9787904761904764,1.0247121785676023
565a3d24c51d430005875042,100,22,16.0,0.7272727272727273,4.17575625,0.9175418282699705
565a3d24c51d430005875042,150,23,17.0,0.7391304347826086,4.040011764705882,1.3777617917669733
67352f08f3ab886418574a6a,0,24,23.0,0.9583333333333334,1.4890173913043478,0.9736905223530513
67352f08f3ab886418574a6a,50,24,24.0,1.0,2.2428125,1.0729974838142629
67352f08f3ab886418574a6a,100,23,20.0,0.8695652173913043,2.6217750000000004,0.6776457830141365
67352f08f3ab886418574a6a,150,24,18.0,0.75,3.0016055555555554,1.1258613849860089
675aaec58dfc729c338a52eb,0,23,22.0,0.9565217391304348,1.4834727272727273,1.0281541514874017
675aaec58dfc729c338a52eb,50,23,23.0,1.0,1.7154565217391304,0.5995193452228565
675aaec58dfc729c338a52eb,100,23,21.0,0.9130434782608695,2.3354238095238093,0.9856356557596534
675aaec58dfc729c338a52eb,150,22,19.0,0.8636363636363636,2.4898842105263155,0.8142864901680339
5dd671942b033b5ec8bc97b4,0,24,23.0,0.9583333333333334,1.5065652173913042,0.5297677729728681
5dd671942b033b5ec8bc97b4,50,24,23.0,0.9583333333333334,1.8833913043478263,0.5559631069455824
5dd671942b033b5ec8bc97b4,100,24,22.0,0.9166666666666666,1.976409090909091,0.5718186241816885
5dd671942b033b5ec8bc97b4,150,23,20.0,0.8695652173913043,2.17195,0.7265583234458339
676d800c5499f924389756b5,0,23,23.0,1.0,2.4240130434782605,0.9832526200433612
676d800c5499f924389756b5,50,24,23.0,0.9583333333333334,2.8374260869565213,0.6735060465527262
676d800c5499f924389756b5,100,23,23.0,1.0,2.8570826086956522,0.5445037512619539
676d800c5499f924389756b5,150,24,22.0,0.9166666666666666,3.3349136363636362,0.8395149434532928
583d5dd49c5f2a0001b85f40,0,23,21.0,0.9130434782608695,1.3659142857142856,0.516837888786914
583d5dd49c5f2a0001b85f40,50,23,22.0,0.9565217391304348,1.9465863636363636,0.6476349164794082
583d5dd49c5f2a0001b85f40,100,23,21.0,0.9130434782608695,2.539828571428571,0.8105709871089991
583d5dd49c5f2a0001b85f40,150,23,21.0,0.9130434782608695,2.444366666666667,0.906795209147762
674b47940b75eb06298f0c67,0,23,20.0,0.8695652173913043,1.4994450000000001,0.7817577808173201
674b47940b75eb06298f0c67,50,24,24.0,1.0,2.5428666666666664,1.7236943569646808
674b47940b75eb06298f0c67,100,24,23.0,0.9583333333333334,3.064904347826086,1.3986938921976984
674b47940b75eb06298f0c67,150,23,18.0,0.782608695652174,2.725361111111111,1.4006557784035176
5f1273be29b0711c3cff250f,0,24,22.0,0.9166666666666666,1.6251363636363636,0.6540862980382521
5f1273be29b0711c3cff250f,50,24,20.0,0.8333333333333334,3.0790999999999995,1.5395009751966964
5f1273be29b0711c3cff250f,100,22,18.0,0.8181818181818182,2.7668333333333326,0.8154770707635969
5f1273be29b0711c3cff250f,150,23,18.0,0.782608695652174,3.6801666666666666,1.193180685000735
55a9f6a1fdf99b2d81b5295f,0,23,21.0,0.9130434782608695,1.3440476190476192,0.6504283570225453
55a9f6a1fdf99b2d81b5295f,50,24,23.0,0.9583333333333334,2.1892608695652176,1.084548008803303
55a9f6a1fdf99b2d81b5295f,100,24,22.0,0.9166666666666666,3.435136363636364,1.67962734799673
55a9f6a1fdf99b2d81b5295f,150,22,18.0,0.8181818181818182,2.7389444444444444,0.8443074762070303
5dac4dad5e53cc001499f1f6,0,23,22.0,0.9565217391304348,1.891909090909091,0.5477155074089807
5dac4dad5e53cc001499f1f6,50,24,23.0,0.9583333333333334,1.9545652173913042,0.5128823918074075
5dac4dad5e53cc001499f1f6,100,24,18.0,0.75,2.3714444444444447,0.6803722356805628
5dac4dad5e53cc001499f1f6,150,24,21.0,0.875,2.5768095238095237,0.7487120019772369
66972752027327f711a5e612,0,23,21.0,0.9130434782608695,1.40747619047619,0.4737277297190464
66972752027327f711a5e612,50,23,22.0,0.9565217391304348,1.7737272727272726,0.768547683052614
66972752027327f711a5e612,100,24,21.0,0.875,1.952952380952381,0.46818270751817354
66972752027327f711a5e612,150,23,18.0,0.782608695652174,2.3305,0.5319682929516405
67329e974d0c9d4221e4c4ac,0,23,18.0,0.782608695652174,2.9029611111111118,1.5981625931928973
67329e974d0c9d4221e4c4ac,50,24,13.0,0.5416666666666666,3.0270230769230766,1.084500925275344
67329e974d0c9d4221e4c4ac,100,24,18.0,0.75,3.6744166666666676,1.3835350682219802
67329e974d0c9d4221e4c4ac,150,24,10.0,0.4166666666666667,3.4356999999999998,1.21888787470838
672a3b3af4fe3ca8478cd6c6,0,23,23.0,1.0,1.9362130434782607,1.1637614611502214
672a3b3af4fe3ca8478cd6c6,50,23,20.0,0.8695652173913043,2.793729999999999,1.105460060027403
672a3b3af4fe3ca8478cd6c6,100,23,19.0,0.8260869565217391,3.6496999999999993,1.5054929617164532
672a3b3af4fe3ca8478cd6c6,150,24,22.0,0.9166666666666666,3.6321409090909085,1.4548386402619136
62786f21e2cc1d6adeea0a79,0,24,23.0,0.9583333333333334,1.703647826086957,0.9336409543821463
62786f21e2cc1d6adeea0a79,50,23,21.0,0.9130434782608695,1.5857523809523808,0.5875296661608226
62786f21e2cc1d6adeea0a79,100,23,21.0,0.9130434782608695,2.0363,0.5330014090037661
62786f21e2cc1d6adeea0a79,150,23,18.0,0.782608695652174,2.124572222222222,0.6912401887873499
67863d420c27f3b6e5f57073,0,24,23.0,0.9583333333333334,1.9962565217391302,0.9063122409102259
67863d420c27f3b6e5f57073,50,23,17.0,0.7391304347826086,2.0979058823529413,0.6568660703204537
67863d420c27f3b6e5f57073,100,24,18.0,0.75,2.8402888888888893,0.7363598208427956
67863d420c27f3b6e5f57073,150,24,18.0,0.75,2.867644444444444,0.8253421466791621
5c0245f0a9d1ef00011816ea,0,24,23.0,0.9583333333333334,2.4930869565217386,1.6538292731785027
5c0245f0a9d1ef00011816ea,50,24,23.0,0.9583333333333334,2.6596956521739132,1.041718703733167
5c0245f0a9d1ef00011816ea,100,24,21.0,0.875,2.4059047619047615,0.955362282318174
5c0245f0a9d1ef00011816ea,150,23,23.0,1.0,2.940304347826087,1.2061346764385434
66f198a897fe47706e8cdfd2,0,24,24.0,1.0,2.4220416666666664,1.6258027980626697
66f198a897fe47706e8cdfd2,50,22,19.0,0.8636363636363636,3.0941368421052626,1.5333322562353198
66f198a897fe47706e8cdfd2,100,23,19.0,0.8260869565217391,3.224699999999999,1.5362705866986959
66f198a897fe47706e8cdfd2,150,24,19.0,0.7916666666666666,3.024021052631579,1.3823577059900023
668f41cc549b163c5d45534e,0,23,22.0,0.9565217391304348,1.3669545454545455,0.6445776378131894
668f41cc549b163c5d45534e,50,23,21.0,0.9130434782608695,1.6833809523809524,0.589192623527355
668f41cc549b163c5d45534e,100,24,21.0,0.875,2.067761904761905,0.9530202990892642
668f41cc549b163c5d45534e,150,24,19.0,0.7916666666666666,1.9340526315789477,0.6386643592237554
6711c745bcc0626c2de36d07,0,23,20.0,0.8695652173913043,1.4999,0.6677054779340648
6711c745bcc0626c2de36d07,50,23,19.0,0.8260869565217391,1.8413526315789475,0.6105079364016136
6711c745bcc0626c2de36d07,100,23,14.0,0.6086956521739131,2.374342857142857,0.779618848406841
6711c745bcc0626c2de36d07,150,24,19.0,0.7916666666666666,2.333668421052631,0.6603651995109571
6740484e188a64793529ee77,0,24,22.0,0.9166666666666666,2.2960000000000003,1.1493970676174612
6740484e188a64793529ee77,50,24,19.0,0.7916666666666666,2.0835263157894737,0.6630880089417537
6740484e188a64793529ee77,100,23,20.0,0.8695652173913043,2.2888499999999996,0.9227389021705693
6740484e188a64793529ee77,150,23,21.0,0.9130434782608695,2.5548095238095234,0.9200715526005365
62e029ff528ea30b4508eaf5,0,23,21.0,0.9130434782608695,1.6151619047619046,0.5868258766245661
62e029ff528ea30b4508eaf5,50,24,21.0,0.875,2.300385714285715,0.853132315227664
62e029ff528ea30b4508eaf5,100,24,24.0,1.0,2.4907833333333333,0.8161015940947903
62e029ff528ea30b4508eaf5,150,24,21.0,0.875,2.437661904761905,0.6307200880550662
671c5ad0eb30c87c11b22ec4,0,23,21.0,0.9130434782608695,2.2038857142857147,0.8182707646529443
671c5ad0eb30c87c11b22ec4,50,24,19.0,0.7916666666666666,3.205742105263157,0.9072818423521922
671c5ad0eb30c87c11b22ec4,100,24,19.0,0.7916666666666666,3.5015473684210523,0.7399582288273823
671c5ad0eb30c87c11b22ec4,150,24,19.0,0.7916666666666666,3.626994736842105,0.7758179787049739
6630ec1ebe18d48a3cecb54e,0,24,21.0,0.875,1.802752380952381,0.9454907406310478
6630ec1ebe18d48a3cecb54e,50,24,23.0,0.9583333333333334,2.6876826086956522,1.3446787205507407
6630ec1ebe18d48a3cecb54e,100,23,20.0,0.8695652173913043,3.151205,1.025958603081451
6630ec1ebe18d48a3cecb54e,150,24,21.0,0.875,3.7558142857142864,0.8376823779247802
66c4a2414f979ae2a78a8adc,0,22,21.0,0.9545454545454546,3.0392190476190475,1.5160316357579902
66c4a2414f979ae2a78a8adc,50,23,23.0,1.0,2.834295652173913,0.8985719748974739
66c4a2414f979ae2a78a8adc,100,23,22.0,0.9565217391304348,3.2902181818181826,1.0546590099519024
66c4a2414f979ae2a78a8adc,150,23,23.0,1.0,3.8414739130434774,1.643173264038876
5a6eac90d5d4cb0001d6815a,0,24,24.0,1.0,1.8396166666666665,0.8441559569831543
5a6eac90d5d4cb0001d6815a,50,23,23.0,1.0,1.954678260869565,0.8087716831189256
5a6eac90d5d4cb0001d6815a,100,22,21.0,0.9545454545454546,2.966195238095238,1.0525500113895732
5a6eac90d5d4cb0001d6815a,150,24,23.0,0.9583333333333334,3.439739130434783,1.5087261191117884
674e0771f3216542d0539c7b,0,23,22.0,0.9565217391304348,1.1681045454545453,0.4563544043386756
674e0771f3216542d0539c7b,50,23,22.0,0.9565217391304348,1.5759000000000005,0.6018429244531216
674e0771f3216542d0539c7b,100,23,22.0,0.9565217391304348,2.550618181818182,0.7842573221033562
674e0771f3216542d0539c7b,150,23,20.0,0.8695652173913043,3.308,1.6034923885070362
67759a26b7a5424ec5d0c0a1,0,23,23.0,1.0,2.4458347826086957,1.498404310230385
67759a26b7a5424ec5d0c0a1,50,23,21.0,0.9130434782608695,2.2992047619047615,0.7549921916657089
67759a26b7a5424ec5d0c0a1,100,24,23.0,0.9583333333333334,3.404326086956522,1.314139249303994
67759a26b7a5424ec5d0c0a1,150,23,20.0,0.8695652173913043,3.6210850000000008,1.456894469781167
66a508e29deb15f57d4458f1,0,23,23.0,1.0,1.7912826086956521,0.5391292024705411
66a508e29deb15f57d4458f1,50,23,21.0,0.9130434782608695,2.3266809523809524,0.9905492464380798
66a508e29deb15f57d4458f1,100,22,21.0,0.9545454545454546,2.3433047619047613,0.5758797925576052
66a508e29deb15f57d4458f1,150,22,21.0,0.9545454545454546,2.7173857142857143,0.7858972549167699
663a80393a72dac091c817b5,0,23,21.0,0.9130434782608695,1.7830714285714282,0.8409386512361393
663a80393a72dac091c817b5,50,23,21.0,0.9130434782608695,2.5188333333333333,1.273473162784883
663a80393a72dac091c817b5,100,24,22.0,0.9166666666666666,2.7585636363636374,0.9053430702254227
663a80393a72dac091c817b5,150,24,18.0,0.75,2.718477777777778,0.8462235927276482
56c15833eb5b22000d5babba,0,21,21.0,1.0,1.9162428571428576,0.7076719222714919
56c15833eb5b22000d5babba,50,23,21.0,0.9130434782608695,2.4631000000000003,0.8884013845104024
56c15833eb5b22000d5babba,100,24,23.0,0.9583333333333334,3.165895652173913,1.0938540826230647
56c15833eb5b22000d5babba,150,24,24.0,1.0,3.2768124999999997,0.9146565301236449
58d1f1038084450001956fdc,0,23,23.0,1.0,1.5488695652173914,0.7594445544635551
58d1f1038084450001956fdc,50,23,21.0,0.9130434782608695,1.963647619047619,0.7391533762481556
58d1f1038084450001956fdc,100,24,23.0,0.9583333333333334,3.0641478260869563,1.6408998243396173
58d1f1038084450001956fdc,150,24,24.0,1.0,2.8562375,1.066327873067395
5eb342dff78ab11407daf144,0,23,21.0,0.9130434782608695,2.1812476190476193,1.1074473462061516
5eb342dff78ab11407daf144,50,24,24.0,1.0,2.8772541666666664,1.3578948710601455
5eb342dff78ab11407daf144,100,23,19.0,0.8260869565217391,3.8238263157894727,1.4028022597018304
5eb342dff78ab11407daf144,150,24,21.0,0.875,3.905661904761905,1.3763136588278815
669b00d76af70db9da1b0301,0,24,24.0,1.0,1.952891666666667,1.009857091016032
669b00d76af70db9da1b0301,50,22,22.0,1.0,2.2242363636363645,0.8161803497858936
669b00d76af70db9da1b0301,100,23,22.0,0.9565217391304348,2.6904090909090908,0.8522707751642867
669b00d76af70db9da1b0301,150,23,21.0,0.9130434782608695,3.120785714285714,1.2758596863627734
66439d339e8b25efa8cb4b9a,0,24,24.0,1.0,1.8291791665833335,0.7570577594553757
66439d339e8b25efa8cb4b9a,50,24,20.0,0.8333333333333334,2.4498250001499997,1.1071124523531057
66439d339e8b25efa8cb4b9a,100,24,21.0,0.875,2.720495238,0.9306029065041758
66439d339e8b25efa8cb4b9a,150,23,16.0,0.6956521739130435,3.1673812498125002,1.7658168377577386
61140d2c5d85c524932a2c59,0,24,15.0,0.625,1.90478,0.6421468214401705
61140d2c5d85c524932a2c59,50,24,20.0,0.8333333333333334,1.821945,0.4188381668063266
61140d2c5d85c524932a2c59,100,24,19.0,0.7916666666666666,1.9986526315789472,0.5131762664127762
61140d2c5d85c524932a2c59,150,24,17.0,0.7083333333333334,2.3858705882352944,0.5876436991969559
663ec602f5dc7af6ccc1c2d0,0,23,23.0,1.0,1.372513043478261,0.312045134125218
663ec602f5dc7af6ccc1c2d0,50,24,21.0,0.875,2.0243571428571427,0.7040036026693532
663ec602f5dc7af6ccc1c2d0,100,24,23.0,0.9583333333333334,2.4156304347826087,0.8947040609938535
663ec602f5dc7af6ccc1c2d0,150,24,21.0,0.875,3.0962047619047617,1.3393739677461969
66ace0fa42d9a6710036025c,0,23,22.0,0.9565217391304348,1.3105090909090913,0.39925562990226954
66ace0fa42d9a6710036025c,50,24,22.0,0.9166666666666666,2.4205545454545456,0.7529274471638291
66ace0fa42d9a6710036025c,100,23,18.0,0.782608695652174,2.8526277777777773,0.9070308476533591
66ace0fa42d9a6710036025c,150,23,20.0,0.8695652173913043,2.8845150000000004,0.5990208574481316
6779f13fe54a982becaa1b3f,0,24,24.0,1.0,2.5613291666666664,1.0548922642205312
6779f13fe54a982becaa1b3f,50,24,22.0,0.9166666666666666,3.056818181818181,1.4401746771159605
6779f13fe54a982becaa1b3f,100,21,21.0,1.0,4.316547619047618,1.6849664031128477
6779f13fe54a982becaa1b3f,150,22,21.0,0.9545454545454546,3.8785904761904755,1.3873703308434853
678dbad423480901e47ad481,0,23,23.0,1.0,1.6752347826086953,0.6297333018528166
678dbad423480901e47ad481,50,23,23.0,1.0,1.8565173913043476,0.6775841260431156
678dbad423480901e47ad481,100,23,22.0,0.9565217391304348,2.1173454545454544,0.8577679099612595
678dbad423480901e47ad481,150,24,23.0,0.9583333333333334,2.8409913043478268,1.1107027050529128
662848c40caa342b28493265,0,23,20.0,0.8695652173913043,1.5248500000000003,0.7101423337687498
662848c40caa342b28493265,50,23,8.0,0.34782608695652173,2.419875,0.7581934237759799
662848c40caa342b28493265,100,24,14.0,0.5833333333333334,2.8357142857142854,0.971302965376638
662848c40caa342b28493265,150,21,13.0,0.6190476190476191,2.259461538461539,0.7678682195299547
678c0db9c6a63a1de276a649,0,22,21.0,0.9545454545454546,1.9889714285714286,0.9957885338478532
678c0db9c6a63a1de276a649,50,23,22.0,0.9565217391304348,2.825331818181818,0.9801870134419994
678c0db9c6a63a1de276a649,100,24,20.0,0.8333333333333334,3.4583,1.5784688173570045
678c0db9c6a63a1de276a649,150,23,20.0,0.8695652173913043,3.7415299999999996,1.4079504148341229
6643d97ef7bef1480ec1166b,0,24,17.0,0.7083333333333334,2.6564588235294115,1.1079151614963707
6643d97ef7bef1480ec1166b,50,22,13.0,0.5909090909090909,2.0489307692307692,0.839304848654146
6643d97ef7bef1480ec1166b,100,24,10.0,0.4166666666666667,3.32205,2.1454078629326716
6643d97ef7bef1480ec1166b,150,24,19.0,0.7916666666666666,3.042931578947368,1.6333543519234792
6733c03807f9f957e2eb1382,0,22,21.0,0.9545454545454546,1.1093761904761905,0.2835200943579871
6733c03807f9f957e2eb1382,50,24,22.0,0.9166666666666666,1.8110545454545457,0.9638480149539843
6733c03807f9f957e2eb1382,100,24,23.0,0.9583333333333334,2.0493173913043483,0.7693113151928771
6733c03807f9f957e2eb1382,150,23,22.0,0.9565217391304348,2.0263454545454547,0.6958617314266314
67228eb9f3f694a42b636b7f,0,24,22.0,0.9166666666666666,2.1967,1.1281324023104988
67228eb9f3f694a42b636b7f,50,21,19.0,0.9047619047619048,1.6872631578947368,0.41268685762468904
67228eb9f3f694a42b636b7f,100,23,16.0,0.6956521739130435,1.92930625,0.7281023732678896
67228eb9f3f694a42b636b7f,150,24,20.0,0.8333333333333334,2.7822500000000003,1.3881448492976438
60d3d517873ac00f2ed811e5,0,23,23.0,1.0,1.495791304347826,0.4510603849043269
60d3d517873ac00f2ed811e5,50,23,22.0,0.9565217391304348,1.7121727272727272,0.5070841614957292
60d3d517873ac00f2ed811e5,100,23,22.0,0.9565217391304348,2.176313636363637,0.89124930417148
60d3d517873ac00f2ed811e5,150,23,23.0,1.0,2.687595652173913,0.9872985209781749
66e28103f28d6e15a3f4f1f0,0,23,19.0,0.8260869565217391,1.7541947368421054,0.6733615625053521
66e28103f28d6e15a3f4f1f0,50,23,15.0,0.6521739130434783,1.5851800000000003,0.7764063656175345
66e28103f28d6e15a3f4f1f0,100,22,11.0,0.5,1.5621636363636364,0.5420812324231993
66e28103f28d6e15a3f4f1f0,150,24,13.0,0.5416666666666666,2.342746153846154,1.2144295503207698
67808d0260180c6133619b2b,0,23,18.0,0.782608695652174,1.6300944444444445,0.7899302065016824
67808d0260180c6133619b2b,50,24,20.0,0.8333333333333334,2.73154,1.3247939432228697
67808d0260180c6133619b2b,100,23,17.0,0.7391304347826086,3.097276470588235,1.277731198516247
67808d0260180c6133619b2b,150,24,22.0,0.9166666666666666,2.913390909090909,1.1700574222413151
6547bf8012d4702680d55663,0,23,21.0,0.9130434782608695,1.3917999999999995,0.7925024145073629
6547bf8012d4702680d55663,50,23,21.0,0.9130434782608695,1.9264619047619045,0.803444791803513
6547bf8012d4702680d55663,100,23,18.0,0.782608695652174,2.4781055555555556,1.0426523008920834
6547bf8012d4702680d55663,150,23,16.0,0.6956521739130435,2.6910625,1.2105440952315616
6742ecbc50ae979ed5099784,0,23,20.0,0.8695652173913043,1.91377,0.7479192407149176
6742ecbc50ae979ed5099784,50,24,19.0,0.7916666666666666,2.4149105263157895,0.9511072505796933
6742ecbc50ae979ed5099784,100,23,22.0,0.9565217391304348,2.826195454545454,1.0276145147528502
6742ecbc50ae979ed5099784,150,24,16.0,0.6666666666666666,3.6490750000000003,1.289425584514283
610b06f1534fdc7ce455d168,0,23,20.0,0.8695652173913043,1.5331,0.6154829426000195
610b06f1534fdc7ce455d168,50,23,22.0,0.9565217391304348,1.8688636363636368,0.5979778062018328
610b06f1534fdc7ce455d168,100,22,16.0,0.7272727272727273,2.7026250000000003,1.0852677626589056
610b06f1534fdc7ce455d168,150,23,18.0,0.782608695652174,1.8975555555555554,0.569807833677514
61216580798476e2db75fc79,0,23,23.0,1.0,1.747217391304348,0.7843612315138836
61216580798476e2db75fc79,50,23,23.0,1.0,2.436826086956522,1.0082219566315702
61216580798476e2db75fc79,100,23,23.0,1.0,3.1604347826086956,1.0546136658462772
61216580798476e2db75fc79,150,24,20.0,0.8333333333333334,3.3939999999999997,1.3196238299726097
66733b0613db805ab4f05114,0,23,19.0,0.8260869565217391,1.1202105263157893,0.3712017389427911
66733b0613db805ab4f05114,50,23,22.0,0.9565217391304348,1.7450909090909095,0.7750740615359288
66733b0613db805ab4f05114,100,23,15.0,0.6521739130434783,2.0018,0.7277470321871075
66733b0613db805ab4f05114,150,23,14.0,0.6086956521739131,2.245642857142857,1.0462238036160079
674ba6a23248254461461b54,0,23,15.0,0.6521739130434783,1.7908533333333334,0.6449298254922964
674ba6a23248254461461b54,50,23,15.0,0.6521739130434783,2.05946,0.5934019931113911
674ba6a23248254461461b54,100,24,16.0,0.6666666666666666,2.03986875,0.724987612509115
674ba6a23248254461461b54,150,23,14.0,0.6086956521739131,2.0559857142857147,0.6959396037645164
6761934aa62aae0c93863233,0,24,21.0,0.875,1.7980761904761904,0.6759875848747239
6761934aa62aae0c93863233,50,24,22.0,0.9166666666666666,2.5194863636363634,1.2020309073339783
6761934aa62aae0c93863233,100,23,19.0,0.8260869565217391,3.0833578947368427,1.0100348659085374
6761934aa62aae0c93863233,150,21,13.0,0.6190476190476191,3.0174692307692306,1.7152575532480128
668ddafedbce64d6094e759e,0,23,22.0,0.9565217391304348,1.644772727272727,0.6319699557218404
668ddafedbce64d6094e759e,50,23,21.0,0.9130434782608695,2.275661904761905,0.6181908746303123
668ddafedbce64d6094e759e,100,23,20.0,0.8695652173913043,2.4961999999999995,0.9746511732274703
668ddafedbce64d6094e759e,150,24,19.0,0.7916666666666666,2.583278947368421,0.8443033305492809
678ac1267cd2b3ce8d1fbf69,0,22,18.0,0.8181818181818182,1.4,0.6085123837494768
678ac1267cd2b3ce8d1fbf69,50,24,23.0,0.9583333333333334,1.5774999999999997,0.599894774863968
678ac1267cd2b3ce8d1fbf69,100,23,20.0,0.8695652173913043,2.219925,1.1577959496047017
678ac1267cd2b3ce8d1fbf69,150,24,18.0,0.75,2.9100388888888893,1.3356052688878723
665f97db56096b743c2332b1,0,23,22.0,0.9565217391304348,2.0793090909090908,1.057638610485458
665f97db56096b743c2332b1,50,23,23.0,1.0,2.2395391304347823,0.8213457735709401
665f97db56096b743c2332b1,100,24,22.0,0.9166666666666666,3.3491954545454545,1.0793553272019865
665f97db56096b743c2332b1,150,24,20.0,0.8333333333333334,4.090605,1.4096051819289872
5efe44bebdee09152fe08acc,0,23,23.0,1.0,1.6210869565217394,0.7750406389956993
5efe44bebdee09152fe08acc,50,24,22.0,0.9166666666666666,1.8507727272727268,0.9355657790021111
5efe44bebdee09152fe08acc,100,24,21.0,0.875,2.3534285714285708,0.836878400451856
5efe44bebdee09152fe08acc,150,23,21.0,0.9130434782608695,2.1877619047619055,0.8519393701879204
61052deed380657fcbe37682,0,23,20.0,0.8695652173913043,1.4803700000000002,0.75569925172163
61052deed380657fcbe37682,50,24,23.0,0.9583333333333334,1.9998130434782608,0.7951505742507047
61052deed380657fcbe37682,100,24,21.0,0.875,2.576204761904762,0.9487472953722663
61052deed380657fcbe37682,150,23,19.0,0.8260869565217391,1.9696210526315783,0.6569088779858346
66dd9c5b1c02410a87c068e5,0,24,22.0,0.9166666666666666,2.201668181818182,1.21708163101677
66dd9c5b1c02410a87c068e5,50,23,21.0,0.9130434782608695,2.735319047619048,1.3652685093486363
66dd9c5b1c02410a87c068e5,100,23,20.0,0.8695652173913043,3.6064249999999993,1.4250434685429219
66dd9c5b1c02410a87c068e5,150,23,19.0,0.8260869565217391,3.848363157894737,1.5402077227188569
6766dee165ff1cc0f8decea0,0,24,24.0,1.0,2.4798208333333336,1.1268077795949925
6766dee165ff1cc0f8decea0,50,23,21.0,0.9130434782608695,3.254580952380953,1.0636510925200273
6766dee165ff1cc0f8decea0,100,23,21.0,0.9130434782608695,3.5606857142857136,1.2579065594414056
6766dee165ff1cc0f8decea0,150,24,20.0,0.8333333333333334,3.6498949999999994,1.5441240506053568
5f4539788c48690d1f71bfcc,0,24,23.0,0.9583333333333334,2.4484826086956524,0.9707906335710338
5f4539788c48690d1f71bfcc,50,24,19.0,0.7916666666666666,2.9959526315789478,0.7683692033336441
5f4539788c48690d1f71bfcc,100,24,21.0,0.875,3.289957142857143,0.7461469738405623
5f4539788c48690d1f71bfcc,150,24,19.0,0.7916666666666666,3.2943368421052632,0.9739014576038003
6647e8618c77f7b938865d25,0,24,20.0,0.8333333333333334,2.786375000000001,1.8538216180224483
6647e8618c77f7b938865d25,50,24,20.0,0.8333333333333334,2.799255,0.7209873299675136
6647e8618c77f7b938865d25,100,24,14.0,0.5833333333333334,2.702628571428572,0.7563796476826776
6647e8618c77f7b938865d25,150,24,18.0,0.75,2.9008000000000007,1.0668643753046203
5630b79b733ea00011164946,0,24,24.0,1.0,1.8519958333333335,0.8126211238033684
5630b79b733ea00011164946,50,24,23.0,0.9583333333333334,2.2429086956521735,0.7912140538513315
5630b79b733ea00011164946,100,24,18.0,0.75,2.416583333333333,0.6358925457228465
5630b79b733ea00011164946,150,23,14.0,0.6086956521739131,2.6806214285714285,0.8044334768868484
671983e8022d66fd0242265b,0,23,21.0,0.9130434782608695,1.65547619047619,0.914233702017576
671983e8022d66fd0242265b,50,24,22.0,0.9166666666666666,2.0431363636363638,0.9538565977603284
671983e8022d66fd0242265b,100,23,21.0,0.9130434782608695,2.2985238095238096,0.9087809757608054
671983e8022d66fd0242265b,150,23,22.0,0.9565217391304348,2.3929090909090904,0.8509280037303201
65a4598a91a3f0e75374a8c4,0,23,18.0,0.782608695652174,1.0090000000000001,0.538221690602761
65a4598a91a3f0e75374a8c4,50,22,11.0,0.5,1.777636363636364,1.045846381905801
65a4598a91a3f0e75374a8c4,100,22,13.0,0.5909090909090909,1.1782307692307694,0.8957733301312107
65a4598a91a3f0e75374a8c4,150,20,10.0,0.5,1.2003,0.8758493084492966
6786177b26851e38285d94a1,0,23,22.0,0.9565217391304348,1.719231818181818,0.6925391090117746
6786177b26851e38285d94a1,50,24,18.0,0.75,3.297105555555555,1.856550766236781
6786177b26851e38285d94a1,100,24,20.0,0.8333333333333334,3.598959999999999,1.2019738180877406
6786177b26851e38285d94a1,150,23,15.0,0.6521739130434783,2.9515400000000005,1.2061005488764194
673d814ffa7de7d961e6bc53,0,23,23.0,1.0,1.3599913043478262,0.482394121132054
673d814ffa7de7d961e6bc53,50,23,20.0,0.8695652173913043,2.5124549999999997,1.0547478244260944
673d814ffa7de7d961e6bc53,100,24,18.0,0.75,3.6083055555555554,1.5701379671384528
673d814ffa7de7d961e6bc53,150,24,18.0,0.75,3.115,1.0784802531667366
678b3480eed43ba29dc48ed5,0,24,24.0,1.0,1.6856583333333335,1.1512383959351609
678b3480eed43ba29dc48ed5,50,24,23.0,0.9583333333333334,3.2186999999999997,1.2891414891666892
678b3480eed43ba29dc48ed5,100,23,14.0,0.6086956521739131,3.4009,1.5597697695000226
678b3480eed43ba29dc48ed5,150,24,15.0,0.625,3.9592666666666667,1.7606351149784665
62fb84322433c8d7e890a145,0,24,23.0,0.9583333333333334,2.2841434782608694,0.7393798112583564
62fb84322433c8d7e890a145,50,24,17.0,0.7083333333333334,2.8340529411764703,0.8254894556546793
62fb84322433c8d7e890a145,100,24,20.0,0.8333333333333334,2.83566,0.6159730986948938
62fb84322433c8d7e890a145,150,24,16.0,0.6666666666666666,2.5277500000000006,0.6212858161372536
5ec0260375bf15077a00e645,0,24,23.0,0.9583333333333334,1.5176173913043483,0.7961893605579095
5ec0260375bf15077a00e645,50,24,21.0,0.875,2.071566666666666,0.7375659715126054
5ec0260375bf15077a00e645,100,24,20.0,0.8333333333333334,2.5587950000000004,0.6936764371429726
5ec0260375bf15077a00e645,150,23,20.0,0.8695652173913043,2.59673,0.8530699934879163
671050c226ff82aa6081d587,0,22,21.0,0.9545454545454546,2.8087142857142857,1.1087956769782763
671050c226ff82aa6081d587,50,21,16.0,0.7619047619047619,4.428368750000001,1.6388880680586457
671050c226ff82aa6081d587,100,22,13.0,0.5909090909090909,4.193553846153846,2.338800301655881
671050c226ff82aa6081d587,150,21,13.0,0.6190476190476191,4.00916923076923,1.6273029467929523
