PROLIFIC_PID,TaskOrder,trial_type,set_size,delay,target_color,orientation_change,condition,VA_response_key,VA_correct,VA_rt,trial_excluded,trial_exclusion_reason
5cd063ce657e300016f6c95a,1.0,practice,5.0,3.0,RED,False,SS5_D3,5.0,1.0,1.4725,False,
5cd063ce657e300016f6c95a,1.0,practice,5.0,1.0,RED,False,SS5_D1,5.0,1.0,1.1152,False,
5cd063ce657e300016f6c95a,1.0,practice,3.0,3.0,RED,True,SS3_D3,6.0,1.0,0.7516,False,
5cd063ce657e300016f6c95a,1.0,practice,5.0,1.0,RED,True,SS5_D1,6.0,1.0,0.8001,False,
5cd063ce657e300016f6c95a,1.0,practice,3.0,1.0,BLUE,True,SS3_D1,6.0,1.0,0.9435,False,
5cd063ce657e300016f6c95a,1.0,practice,3.0,1.0,RED,True,SS3_D1,6.0,1.0,0.7437,False,
5cd063ce657e300016f6c95a,1.0,practice,3.0,1.0,RED,False,SS3_D1,5.0,1.0,0.8416,False,
5cd063ce657e300016f6c95a,1.0,practice,5.0,3.0,BLUE,True,SS5_D3,5.0,0.0,0.9257,False,
5cd063ce657e300016f6c95a,1.0,practice,5.0,3.0,RED,True,SS5_D3,6.0,1.0,0.6032,False,
5cd063ce657e300016f6c95a,1.0,practice,3.0,3.0,BLUE,True,SS3_D3,6.0,1.0,0.7183,False,
5cd063ce657e300016f6c95a,1.0,practice,5.0,3.0,BLUE,False,SS5_D3,5.0,1.0,1.0171,False,
5cd063ce657e300016f6c95a,1.0,practice,5.0,1.0,BLUE,True,SS5_D1,6.0,1.0,1.467,False,
5cd063ce657e300016f6c95a,1.0,practice,3.0,3.0,BLUE,False,SS3_D3,5.0,1.0,0.7699,False,
5cd063ce657e300016f6c95a,1.0,practice,3.0,3.0,RED,False,SS3_D3,5.0,1.0,0.8183,False,
5cd063ce657e300016f6c95a,1.0,practice,5.0,1.0,BLUE,False,SS5_D1,5.0,1.0,1.3008,False,
5cd063ce657e300016f6c95a,1.0,practice,3.0,1.0,BLUE,False,SS3_D1,5.0,1.0,1.0315,False,
5cd063ce657e300016f6c95a,1.0,practice,3.0,1.0,RED,False,SS3_D1,5.0,1.0,0.6535,False,
5cd063ce657e300016f6c95a,1.0,practice,5.0,1.0,RED,True,SS5_D1,6.0,1.0,0.7669,False,
5cd063ce657e300016f6c95a,1.0,practice,5.0,1.0,BLUE,True,SS5_D1,6.0,1.0,0.9882,False,
5cd063ce657e300016f6c95a,1.0,practice,5.0,3.0,RED,True,SS5_D3,5.0,0.0,0.9183,False,
5cd063ce657e300016f6c95a,1.0,practice,5.0,1.0,RED,False,SS5_D1,5.0,1.0,1.1553,False,
5cd063ce657e300016f6c95a,1.0,practice,3.0,3.0,RED,True,SS3_D3,6.0,1.0,0.7504,False,
5cd063ce657e300016f6c95a,1.0,practice,5.0,3.0,RED,False,SS5_D3,6.0,0.0,1.1238,False,
5cd063ce657e300016f6c95a,1.0,practice,3.0,1.0,BLUE,True,SS3_D1,6.0,1.0,0.9487,False,
5cd063ce657e300016f6c95a,1.0,practice,3.0,3.0,BLUE,False,SS3_D3,5.0,1.0,0.8292,False,
5cd063ce657e300016f6c95a,1.0,practice,3.0,1.0,RED,True,SS3_D1,6.0,1.0,0.785,False,
5cd063ce657e300016f6c95a,1.0,practice,3.0,1.0,BLUE,False,SS3_D1,5.0,1.0,1.0559,False,
5cd063ce657e300016f6c95a,1.0,practice,5.0,3.0,BLUE,False,SS5_D3,5.0,1.0,1.367,False,
5cd063ce657e300016f6c95a,1.0,practice,3.0,3.0,BLUE,True,SS3_D3,6.0,1.0,0.9181,False,
5cd063ce657e300016f6c95a,1.0,practice,3.0,3.0,RED,False,SS3_D3,5.0,1.0,1.0702,False,
5cd063ce657e300016f6c95a,1.0,practice,5.0,1.0,BLUE,False,SS5_D1,5.0,1.0,1.0823,False,
5cd063ce657e300016f6c95a,1.0,practice,5.0,3.0,BLUE,True,SS5_D3,6.0,1.0,0.8682,False,
5cd063ce657e300016f6c95a,1.0,test,3.0,3.0,BLUE,False,SS3_D3,6.0,0.0,0.0225,True,RT < 200ms
5cd063ce657e300016f6c95a,1.0,test,3.0,1.0,BLUE,True,SS3_D1,6.0,1.0,0.9365,False,
5cd063ce657e300016f6c95a,1.0,test,5.0,1.0,BLUE,True,SS5_D1,6.0,1.0,1.1429,False,
5cd063ce657e300016f6c95a,1.0,test,5.0,1.0,RED,False,SS5_D1,6.0,0.0,0.9111,False,
5cd063ce657e300016f6c95a,1.0,test,3.0,3.0,RED,False,SS3_D3,5.0,1.0,1.368,False,
5cd063ce657e300016f6c95a,1.0,test,5.0,3.0,RED,True,SS5_D3,5.0,0.0,1.1849,False,
5cd063ce657e300016f6c95a,1.0,test,3.0,3.0,RED,True,SS3_D3,6.0,1.0,2.0517,False,
5cd063ce657e300016f6c95a,1.0,test,3.0,1.0,RED,True,SS3_D1,6.0,1.0,1.12,False,
5cd063ce657e300016f6c95a,1.0,test,5.0,1.0,BLUE,False,SS5_D1,5.0,1.0,1.1015,False,
5cd063ce657e300016f6c95a,1.0,test,5.0,1.0,RED,True,SS5_D1,6.0,1.0,1.417,False,
5cd063ce657e300016f6c95a,1.0,test,3.0,1.0,BLUE,False,SS3_D1,5.0,1.0,1.0075,False,
5cd063ce657e300016f6c95a,1.0,test,5.0,3.0,BLUE,True,SS5_D3,5.0,0.0,1.3519,False,
5cd063ce657e300016f6c95a,1.0,test,3.0,3.0,BLUE,True,SS3_D3,6.0,1.0,1.2518,False,
5cd063ce657e300016f6c95a,1.0,test,3.0,1.0,RED,False,SS3_D1,5.0,1.0,0.9307,False,
5cd063ce657e300016f6c95a,1.0,test,5.0,3.0,BLUE,False,SS5_D3,6.0,0.0,1.6157,False,
5cd063ce657e300016f6c95a,1.0,test,5.0,3.0,RED,False,SS5_D3,5.0,1.0,1.3662,False,
5cd063ce657e300016f6c95a,1.0,test,5.0,3.0,BLUE,False,SS5_D3,5.0,1.0,1.1337,False,
5cd063ce657e300016f6c95a,1.0,test,3.0,1.0,RED,False,SS3_D1,5.0,1.0,1.0677,False,
5cd063ce657e300016f6c95a,1.0,test,3.0,3.0,RED,False,SS3_D3,5.0,1.0,0.9546,False,
5cd063ce657e300016f6c95a,1.0,test,3.0,3.0,BLUE,True,SS3_D3,6.0,1.0,0.8325,False,
5cd063ce657e300016f6c95a,1.0,test,5.0,3.0,RED,False,SS5_D3,5.0,1.0,1.8741,False,
5cd063ce657e300016f6c95a,1.0,test,5.0,3.0,BLUE,True,SS5_D3,6.0,1.0,1.0516,False,
5cd063ce657e300016f6c95a,1.0,test,3.0,3.0,BLUE,False,SS3_D3,5.0,1.0,1.0337,False,
5cd063ce657e300016f6c95a,1.0,test,5.0,1.0,RED,True,SS5_D1,6.0,1.0,1.6504,False,
5cd063ce657e300016f6c95a,1.0,test,3.0,1.0,BLUE,True,SS3_D1,6.0,1.0,0.9097,False,
5cd063ce657e300016f6c95a,1.0,test,3.0,3.0,RED,True,SS3_D3,6.0,1.0,1.1398,False,
5cd063ce657e300016f6c95a,1.0,test,3.0,1.0,BLUE,False,SS3_D1,5.0,1.0,0.95,False,
5cd063ce657e300016f6c95a,1.0,test,5.0,3.0,RED,True,SS5_D3,5.0,0.0,1.0177,False,
5cd063ce657e300016f6c95a,1.0,test,5.0,1.0,RED,False,SS5_D1,5.0,1.0,1.2494,False,
5cd063ce657e300016f6c95a,1.0,test,3.0,1.0,RED,True,SS3_D1,5.0,0.0,0.903,False,
5cd063ce657e300016f6c95a,1.0,test,5.0,1.0,BLUE,False,SS5_D1,6.0,0.0,1.3841,False,
5cd063ce657e300016f6c95a,1.0,test,5.0,1.0,BLUE,True,SS5_D1,6.0,1.0,1.5171,False,
5cd063ce657e300016f6c95a,1.0,test,5.0,3.0,RED,False,SS5_D3,5.0,1.0,1.3837,False,
5cd063ce657e300016f6c95a,1.0,test,3.0,3.0,BLUE,False,SS3_D3,5.0,1.0,1.1888,False,
5cd063ce657e300016f6c95a,1.0,test,3.0,1.0,RED,True,SS3_D1,6.0,1.0,1.0347,False,
5cd063ce657e300016f6c95a,1.0,test,5.0,3.0,BLUE,False,SS5_D3,5.0,1.0,1.0622,False,
5cd063ce657e300016f6c95a,1.0,test,3.0,3.0,RED,False,SS3_D3,5.0,1.0,2.3491,False,
5cd063ce657e300016f6c95a,1.0,test,3.0,3.0,BLUE,True,SS3_D3,5.0,0.0,1.5502,False,
5cd063ce657e300016f6c95a,1.0,test,5.0,3.0,RED,True,SS5_D3,6.0,1.0,0.709,False,
5cd063ce657e300016f6c95a,1.0,test,3.0,3.0,RED,True,SS3_D3,6.0,1.0,1.1298,False,
5cd063ce657e300016f6c95a,1.0,test,3.0,1.0,RED,False,SS3_D1,5.0,1.0,1.0504,False,
5cd063ce657e300016f6c95a,1.0,test,5.0,3.0,BLUE,True,SS5_D3,6.0,1.0,1.4742,False,
5cd063ce657e300016f6c95a,1.0,test,5.0,1.0,BLUE,True,SS5_D1,6.0,1.0,0.9335,False,
5cd063ce657e300016f6c95a,1.0,test,3.0,1.0,BLUE,False,SS3_D1,5.0,1.0,0.9085,False,
5cd063ce657e300016f6c95a,1.0,test,5.0,1.0,RED,True,SS5_D1,6.0,1.0,1.1007,False,
5cd063ce657e300016f6c95a,1.0,test,5.0,1.0,BLUE,False,SS5_D1,5.0,1.0,1.0882,False,
5cd063ce657e300016f6c95a,1.0,test,3.0,1.0,BLUE,True,SS3_D1,6.0,1.0,0.9294,False,
5cd063ce657e300016f6c95a,1.0,test,5.0,1.0,RED,False,SS5_D1,6.0,0.0,2.1767,True,RT outlier in SS5_D1
5cd063ce657e300016f6c95a,1.0,test,3.0,1.0,RED,True,SS3_D1,6.0,1.0,0.8408,False,
5cd063ce657e300016f6c95a,1.0,test,5.0,1.0,BLUE,True,SS5_D1,6.0,1.0,0.8783,False,
5cd063ce657e300016f6c95a,1.0,test,3.0,1.0,BLUE,False,SS3_D1,5.0,1.0,0.8437,False,
5cd063ce657e300016f6c95a,1.0,test,5.0,3.0,BLUE,False,SS5_D3,5.0,1.0,1.3749,False,
5cd063ce657e300016f6c95a,1.0,test,5.0,1.0,RED,False,SS5_D1,6.0,0.0,1.1895,False,
5cd063ce657e300016f6c95a,1.0,test,3.0,3.0,BLUE,True,SS3_D3,6.0,1.0,1.4692,False,
5cd063ce657e300016f6c95a,1.0,test,3.0,1.0,RED,False,SS3_D1,5.0,1.0,1.1289,False,
5cd063ce657e300016f6c95a,1.0,test,5.0,3.0,RED,False,SS5_D3,5.0,1.0,1.3291,False,
5cd063ce657e300016f6c95a,1.0,test,5.0,3.0,BLUE,True,SS5_D3,6.0,1.0,1.8544,False,
5cd063ce657e300016f6c95a,1.0,test,5.0,1.0,RED,True,SS5_D1,6.0,1.0,1.0708,False,
5cd063ce657e300016f6c95a,1.0,test,5.0,3.0,RED,True,SS5_D3,6.0,1.0,0.9357,False,
5cd063ce657e300016f6c95a,1.0,test,3.0,1.0,BLUE,True,SS3_D1,6.0,1.0,0.8194,False,
5cd063ce657e300016f6c95a,1.0,test,3.0,3.0,RED,True,SS3_D3,6.0,1.0,0.9221,False,
5cd063ce657e300016f6c95a,1.0,test,3.0,3.0,BLUE,False,SS3_D3,5.0,1.0,1.2091,False,
5cd063ce657e300016f6c95a,1.0,test,3.0,3.0,RED,False,SS3_D3,5.0,1.0,1.2019,False,
5cd063ce657e300016f6c95a,1.0,test,5.0,1.0,BLUE,False,SS5_D1,5.0,1.0,1.4059,False,
5cd063ce657e300016f6c95a,1.0,test,5.0,1.0,BLUE,True,SS5_D1,6.0,1.0,1.0754,False,
5cd063ce657e300016f6c95a,1.0,test,3.0,3.0,RED,True,SS3_D3,6.0,1.0,1.951,False,
5cd063ce657e300016f6c95a,1.0,test,3.0,3.0,BLUE,True,SS3_D3,6.0,1.0,1.2822,False,
5cd063ce657e300016f6c95a,1.0,test,3.0,1.0,BLUE,False,SS3_D1,5.0,1.0,1.2149,False,
5cd063ce657e300016f6c95a,1.0,test,5.0,1.0,BLUE,False,SS5_D1,5.0,1.0,1.259,False,
5cd063ce657e300016f6c95a,1.0,test,3.0,3.0,RED,False,SS3_D3,5.0,1.0,1.066,False,
5cd063ce657e300016f6c95a,1.0,test,3.0,1.0,BLUE,True,SS3_D1,6.0,1.0,1.0837,False,
5cd063ce657e300016f6c95a,1.0,test,3.0,1.0,RED,False,SS3_D1,5.0,1.0,1.0677,False,
5cd063ce657e300016f6c95a,1.0,test,5.0,3.0,RED,False,SS5_D3,5.0,1.0,1.134,False,
5cd063ce657e300016f6c95a,1.0,test,5.0,1.0,RED,True,SS5_D1,6.0,1.0,1.3673,False,
5cd063ce657e300016f6c95a,1.0,test,3.0,1.0,RED,True,SS3_D1,6.0,1.0,0.9009,False,
5cd063ce657e300016f6c95a,1.0,test,5.0,3.0,BLUE,False,SS5_D3,5.0,1.0,1.2706,False,
5cd063ce657e300016f6c95a,1.0,test,5.0,3.0,RED,True,SS5_D3,5.0,0.0,1.865,False,
5cd063ce657e300016f6c95a,1.0,test,5.0,1.0,RED,False,SS5_D1,5.0,1.0,0.9848,False,
5cd063ce657e300016f6c95a,1.0,test,5.0,3.0,BLUE,True,SS5_D3,5.0,0.0,1.0217,False,
5cd063ce657e300016f6c95a,1.0,test,3.0,3.0,BLUE,False,SS3_D3,5.0,1.0,0.8359,False,
5cd063ce657e300016f6c95a,1.0,test,3.0,1.0,RED,False,SS3_D1,5.0,1.0,1.0648,False,
5cd063ce657e300016f6c95a,1.0,test,5.0,3.0,RED,False,SS5_D3,5.0,1.0,0.9764,False,
5cd063ce657e300016f6c95a,1.0,test,3.0,1.0,BLUE,False,SS3_D1,5.0,1.0,0.7374,False,
5cd063ce657e300016f6c95a,1.0,test,3.0,3.0,BLUE,False,SS3_D3,5.0,1.0,0.9086,False,
5cd063ce657e300016f6c95a,1.0,test,3.0,3.0,RED,True,SS3_D3,6.0,1.0,0.8237,False,
5cd063ce657e300016f6c95a,1.0,test,5.0,3.0,RED,True,SS5_D3,6.0,1.0,1.0287,False,
5cd063ce657e300016f6c95a,1.0,test,5.0,1.0,BLUE,False,SS5_D1,5.0,1.0,1.0042,False,
5cd063ce657e300016f6c95a,1.0,test,5.0,1.0,BLUE,True,SS5_D1,6.0,1.0,1.2485,False,
5cd063ce657e300016f6c95a,1.0,test,5.0,3.0,BLUE,True,SS5_D3,5.0,0.0,1.3394,False,
5cd063ce657e300016f6c95a,1.0,test,5.0,1.0,RED,False,SS5_D1,5.0,1.0,1.0908,False,
5cd063ce657e300016f6c95a,1.0,test,5.0,1.0,RED,True,SS5_D1,6.0,1.0,1.1749,False,
5cd063ce657e300016f6c95a,1.0,test,5.0,3.0,BLUE,False,SS5_D3,6.0,0.0,1.255,False,
5cd063ce657e300016f6c95a,1.0,test,3.0,3.0,RED,False,SS3_D3,5.0,1.0,0.7821,False,
5cd063ce657e300016f6c95a,1.0,test,3.0,1.0,BLUE,True,SS3_D1,6.0,1.0,1.7019,True,RT outlier in SS3_D1
5cd063ce657e300016f6c95a,1.0,test,3.0,3.0,BLUE,True,SS3_D3,6.0,1.0,0.9754,False,
5cd063ce657e300016f6c95a,1.0,test,3.0,1.0,RED,True,SS3_D1,6.0,1.0,0.8348,False,
5cd063ce657e300016f6c95a,1.0,test,3.0,1.0,RED,True,SS3_D1,6.0,1.0,0.7829,False,
5cd063ce657e300016f6c95a,1.0,test,3.0,3.0,BLUE,True,SS3_D3,6.0,1.0,0.7692,False,
5cd063ce657e300016f6c95a,1.0,test,3.0,3.0,RED,False,SS3_D3,6.0,0.0,1.9799,False,
5cd063ce657e300016f6c95a,1.0,test,5.0,3.0,BLUE,True,SS5_D3,5.0,0.0,1.8522,False,
5cd063ce657e300016f6c95a,1.0,test,3.0,1.0,BLUE,True,SS3_D1,5.0,0.0,1.4197,False,
5cd063ce657e300016f6c95a,1.0,test,3.0,1.0,RED,False,SS3_D1,5.0,1.0,1.0567,False,
5cd063ce657e300016f6c95a,1.0,test,3.0,1.0,BLUE,False,SS3_D1,5.0,1.0,0.8075,False,
5cd063ce657e300016f6c95a,1.0,test,3.0,3.0,RED,True,SS3_D3,5.0,0.0,0.7194,False,
5cd063ce657e300016f6c95a,1.0,test,5.0,1.0,RED,False,SS5_D1,5.0,1.0,0.9344,False,
5cd063ce657e300016f6c95a,1.0,test,5.0,3.0,RED,False,SS5_D3,6.0,0.0,1.1866,False,
5cd063ce657e300016f6c95a,1.0,test,5.0,3.0,RED,True,SS5_D3,6.0,1.0,1.1684,False,
5cd063ce657e300016f6c95a,1.0,test,5.0,1.0,BLUE,True,SS5_D1,6.0,1.0,0.7364,False,
5cd063ce657e300016f6c95a,1.0,test,5.0,1.0,RED,True,SS5_D1,6.0,1.0,1.0022,False,
5cd063ce657e300016f6c95a,1.0,test,5.0,3.0,BLUE,False,SS5_D3,5.0,1.0,1.1544,False,
5cd063ce657e300016f6c95a,1.0,test,3.0,3.0,BLUE,False,SS3_D3,5.0,1.0,1.1316,False,
5cd063ce657e300016f6c95a,1.0,test,5.0,1.0,BLUE,False,SS5_D1,5.0,1.0,1.5867,False,
678e92010390e1c202944292,1.0,practice,3.0,3.0,RED,True,SS3_D3,6.0,1.0,2.3846,False,
678e92010390e1c202944292,1.0,practice,5.0,3.0,BLUE,False,SS5_D3,6.0,0.0,1.8357,False,
678e92010390e1c202944292,1.0,practice,3.0,3.0,RED,False,SS3_D3,5.0,1.0,2.0895,False,
678e92010390e1c202944292,1.0,practice,3.0,1.0,BLUE,True,SS3_D1,6.0,1.0,1.2161,False,
678e92010390e1c202944292,1.0,practice,5.0,3.0,BLUE,True,SS5_D3,5.0,0.0,1.8699,False,
678e92010390e1c202944292,1.0,practice,5.0,1.0,RED,False,SS5_D1,5.0,1.0,1.7222,False,
678e92010390e1c202944292,1.0,practice,3.0,3.0,BLUE,True,SS3_D3,6.0,1.0,1.5864,False,
678e92010390e1c202944292,1.0,practice,5.0,3.0,RED,True,SS5_D3,6.0,1.0,1.1179,False,
678e92010390e1c202944292,1.0,practice,5.0,3.0,RED,False,SS5_D3,5.0,1.0,0.9846,False,
678e92010390e1c202944292,1.0,practice,5.0,1.0,RED,True,SS5_D1,5.0,0.0,1.4211,False,
678e92010390e1c202944292,1.0,practice,3.0,3.0,BLUE,False,SS3_D3,5.0,1.0,1.4,False,
678e92010390e1c202944292,1.0,practice,3.0,1.0,RED,True,SS3_D1,6.0,1.0,1.0518,False,
678e92010390e1c202944292,1.0,practice,3.0,1.0,RED,False,SS3_D1,5.0,1.0,0.9338,False,
678e92010390e1c202944292,1.0,practice,5.0,1.0,BLUE,True,SS5_D1,6.0,1.0,1.22,False,
678e92010390e1c202944292,1.0,practice,3.0,1.0,BLUE,False,SS3_D1,5.0,1.0,0.5837,False,
678e92010390e1c202944292,1.0,practice,5.0,1.0,BLUE,True,SS5_D1,6.0,1.0,0.6854,False,
678e92010390e1c202944292,1.0,practice,5.0,3.0,RED,True,SS5_D3,5.0,0.0,0.7808,False,
678e92010390e1c202944292,1.0,practice,3.0,1.0,RED,False,SS3_D1,5.0,1.0,1.1672,False,
678e92010390e1c202944292,1.0,practice,3.0,3.0,RED,False,SS3_D3,5.0,1.0,0.9166,False,
678e92010390e1c202944292,1.0,practice,5.0,1.0,RED,False,SS5_D1,6.0,0.0,0.9799,False,
678e92010390e1c202944292,1.0,practice,5.0,3.0,RED,False,SS5_D3,6.0,0.0,1.0008,False,
678e92010390e1c202944292,1.0,practice,3.0,1.0,BLUE,True,SS3_D1,6.0,1.0,0.9834,False,
678e92010390e1c202944292,1.0,practice,3.0,3.0,RED,True,SS3_D3,6.0,1.0,0.7335,False,
678e92010390e1c202944292,1.0,practice,5.0,3.0,BLUE,False,SS5_D3,5.0,1.0,1.101,False,
678e92010390e1c202944292,1.0,practice,3.0,3.0,BLUE,False,SS3_D3,5.0,1.0,1.0214,False,
678e92010390e1c202944292,1.0,practice,3.0,3.0,BLUE,True,SS3_D3,6.0,1.0,0.784,False,
678e92010390e1c202944292,1.0,practice,3.0,1.0,BLUE,False,SS3_D1,5.0,1.0,0.6703,False,
678e92010390e1c202944292,1.0,practice,5.0,3.0,BLUE,True,SS5_D3,6.0,1.0,0.9837,False,
678e92010390e1c202944292,1.0,practice,5.0,1.0,RED,True,SS5_D1,6.0,1.0,0.853,False,
678e92010390e1c202944292,1.0,practice,3.0,1.0,RED,True,SS3_D1,6.0,1.0,1.2177,False,
678e92010390e1c202944292,1.0,practice,5.0,1.0,BLUE,False,SS5_D1,5.0,1.0,0.8046,False,
678e92010390e1c202944292,1.0,test,3.0,1.0,BLUE,False,SS3_D1,6.0,0.0,1.034,False,
678e92010390e1c202944292,1.0,test,5.0,1.0,RED,False,SS5_D1,6.0,0.0,1.0391,False,
678e92010390e1c202944292,1.0,test,5.0,1.0,RED,True,SS5_D1,6.0,1.0,0.9502,False,
678e92010390e1c202944292,1.0,test,3.0,3.0,BLUE,True,SS3_D3,6.0,1.0,1.0022,False,
678e92010390e1c202944292,1.0,test,5.0,3.0,RED,False,SS5_D3,5.0,1.0,0.751,False,
678e92010390e1c202944292,1.0,test,5.0,1.0,BLUE,False,SS5_D1,5.0,1.0,1.0173,False,
678e92010390e1c202944292,1.0,test,5.0,1.0,BLUE,True,SS5_D1,6.0,1.0,0.7888,False,
678e92010390e1c202944292,1.0,test,3.0,3.0,RED,False,SS3_D3,5.0,1.0,0.8902,False,
678e92010390e1c202944292,1.0,test,5.0,3.0,RED,True,SS5_D3,6.0,1.0,0.9171,False,
678e92010390e1c202944292,1.0,test,3.0,1.0,BLUE,True,SS3_D1,6.0,1.0,1.0342,False,
678e92010390e1c202944292,1.0,test,5.0,3.0,BLUE,False,SS5_D3,5.0,1.0,0.7207,False,
678e92010390e1c202944292,1.0,test,5.0,3.0,BLUE,True,SS5_D3,6.0,1.0,1.2509,False,
678e92010390e1c202944292,1.0,test,3.0,1.0,RED,True,SS3_D1,5.0,0.0,0.7178,False,
678e92010390e1c202944292,1.0,test,3.0,1.0,RED,False,SS3_D1,5.0,1.0,0.7219,False,
678e92010390e1c202944292,1.0,test,3.0,3.0,BLUE,False,SS3_D3,5.0,1.0,0.8839,False,
678e92010390e1c202944292,1.0,test,3.0,3.0,RED,True,SS3_D3,6.0,1.0,1.0009,False,
678e92010390e1c202944292,1.0,test,5.0,1.0,RED,True,SS5_D1,5.0,0.0,1.3181,False,
678e92010390e1c202944292,1.0,test,3.0,3.0,RED,False,SS3_D3,5.0,1.0,0.9704,False,
678e92010390e1c202944292,1.0,test,5.0,3.0,BLUE,True,SS5_D3,5.0,0.0,0.7673,False,
678e92010390e1c202944292,1.0,test,3.0,3.0,BLUE,True,SS3_D3,6.0,1.0,0.8695,False,
678e92010390e1c202944292,1.0,test,3.0,1.0,BLUE,False,SS3_D1,5.0,1.0,0.599,False,
678e92010390e1c202944292,1.0,test,3.0,3.0,RED,True,SS3_D3,5.0,0.0,0.7176,False,
678e92010390e1c202944292,1.0,test,5.0,1.0,BLUE,False,SS5_D1,5.0,1.0,0.6703,False,
678e92010390e1c202944292,1.0,test,3.0,1.0,RED,False,SS3_D1,5.0,1.0,0.8979,False,
678e92010390e1c202944292,1.0,test,3.0,1.0,BLUE,True,SS3_D1,5.0,0.0,0.8848,False,
678e92010390e1c202944292,1.0,test,5.0,3.0,RED,True,SS5_D3,6.0,1.0,0.915,False,
678e92010390e1c202944292,1.0,test,3.0,3.0,BLUE,False,SS3_D3,6.0,0.0,1.0143,False,
678e92010390e1c202944292,1.0,test,5.0,1.0,BLUE,True,SS5_D1,6.0,1.0,0.9512,False,
678e92010390e1c202944292,1.0,test,3.0,1.0,RED,True,SS3_D1,6.0,1.0,0.8849,False,
678e92010390e1c202944292,1.0,test,5.0,3.0,BLUE,False,SS5_D3,5.0,1.0,0.7507,False,
678e92010390e1c202944292,1.0,test,5.0,1.0,RED,False,SS5_D1,6.0,0.0,1.0059,False,
678e92010390e1c202944292,1.0,test,5.0,3.0,RED,False,SS5_D3,5.0,1.0,0.7034,False,
678e92010390e1c202944292,1.0,test,5.0,1.0,BLUE,True,SS5_D1,5.0,0.0,1.3477,False,
678e92010390e1c202944292,1.0,test,3.0,3.0,RED,True,SS3_D3,5.0,0.0,0.9365,False,
678e92010390e1c202944292,1.0,test,5.0,1.0,RED,True,SS5_D1,6.0,1.0,0.9679,False,
678e92010390e1c202944292,1.0,test,3.0,1.0,BLUE,False,SS3_D1,6.0,0.0,3.7488,True,RT outlier in SS3_D1
678e92010390e1c202944292,1.0,test,5.0,3.0,BLUE,True,SS5_D3,5.0,0.0,0.6514,False,
678e92010390e1c202944292,1.0,test,5.0,3.0,RED,False,SS5_D3,6.0,0.0,0.9476,False,
678e92010390e1c202944292,1.0,test,5.0,3.0,RED,True,SS5_D3,5.0,0.0,0.517,False,
678e92010390e1c202944292,1.0,test,3.0,1.0,BLUE,True,SS3_D1,6.0,1.0,2.1196,False,
678e92010390e1c202944292,1.0,test,3.0,3.0,RED,False,SS3_D3,5.0,1.0,0.8173,False,
678e92010390e1c202944292,1.0,test,3.0,1.0,RED,True,SS3_D1,6.0,1.0,0.8188,False,
678e92010390e1c202944292,1.0,test,5.0,1.0,RED,False,SS5_D1,5.0,1.0,0.8841,False,
678e92010390e1c202944292,1.0,test,3.0,1.0,RED,False,SS3_D1,5.0,1.0,0.5842,False,
678e92010390e1c202944292,1.0,test,5.0,3.0,BLUE,False,SS5_D3,5.0,1.0,0.6182,False,
678e92010390e1c202944292,1.0,test,3.0,3.0,BLUE,False,SS3_D3,5.0,1.0,0.517,False,
678e92010390e1c202944292,1.0,test,3.0,3.0,BLUE,True,SS3_D3,6.0,1.0,0.9677,False,
678e92010390e1c202944292,1.0,test,5.0,1.0,BLUE,False,SS5_D1,5.0,1.0,0.8668,False,
678e92010390e1c202944292,1.0,test,3.0,1.0,RED,True,SS3_D1,6.0,1.0,0.8396,False,
678e92010390e1c202944292,1.0,test,5.0,1.0,BLUE,True,SS5_D1,6.0,1.0,0.804,False,
678e92010390e1c202944292,1.0,test,3.0,1.0,BLUE,True,SS3_D1,6.0,1.0,0.8214,False,
678e92010390e1c202944292,1.0,test,3.0,1.0,BLUE,False,SS3_D1,5.0,1.0,0.7858,False,
678e92010390e1c202944292,1.0,test,3.0,3.0,RED,True,SS3_D3,5.0,0.0,1.2337,False,
678e92010390e1c202944292,1.0,test,5.0,1.0,RED,True,SS5_D1,5.0,0.0,0.7509,False,
678e92010390e1c202944292,1.0,test,5.0,3.0,BLUE,False,SS5_D3,5.0,1.0,1.0371,False,
678e92010390e1c202944292,1.0,test,3.0,3.0,RED,False,SS3_D3,6.0,0.0,1.2646,False,
678e92010390e1c202944292,1.0,test,3.0,1.0,RED,False,SS3_D1,5.0,1.0,0.7343,False,
678e92010390e1c202944292,1.0,test,5.0,3.0,BLUE,True,SS5_D3,5.0,0.0,1.5715,False,
678e92010390e1c202944292,1.0,test,3.0,3.0,BLUE,True,SS3_D3,6.0,1.0,0.7215,False,
678e92010390e1c202944292,1.0,test,5.0,3.0,RED,True,SS5_D3,5.0,0.0,0.8383,False,
678e92010390e1c202944292,1.0,test,3.0,3.0,BLUE,False,SS3_D3,5.0,1.0,0.6541,False,
678e92010390e1c202944292,1.0,test,5.0,1.0,RED,False,SS5_D1,5.0,1.0,0.7031,False,
678e92010390e1c202944292,1.0,test,5.0,1.0,BLUE,False,SS5_D1,5.0,1.0,0.8374,False,
678e92010390e1c202944292,1.0,test,5.0,3.0,RED,False,SS5_D3,5.0,1.0,1.6375,False,
678e92010390e1c202944292,1.0,test,5.0,1.0,RED,True,SS5_D1,6.0,1.0,0.8148,False,
678e92010390e1c202944292,1.0,test,5.0,3.0,RED,False,SS5_D3,6.0,0.0,1.3511,False,
678e92010390e1c202944292,1.0,test,3.0,3.0,BLUE,False,SS3_D3,6.0,0.0,0.8835,False,
678e92010390e1c202944292,1.0,test,5.0,3.0,BLUE,False,SS5_D3,5.0,1.0,0.835,False,
678e92010390e1c202944292,1.0,test,3.0,3.0,RED,False,SS3_D3,6.0,0.0,1.1847,False,
678e92010390e1c202944292,1.0,test,3.0,3.0,RED,True,SS3_D3,6.0,1.0,0.9824,False,
678e92010390e1c202944292,1.0,test,5.0,1.0,BLUE,True,SS5_D1,6.0,1.0,1.0007,False,
678e92010390e1c202944292,1.0,test,3.0,1.0,RED,True,SS3_D1,6.0,1.0,0.82,False,
678e92010390e1c202944292,1.0,test,5.0,1.0,BLUE,False,SS5_D1,5.0,1.0,0.8318,False,
678e92010390e1c202944292,1.0,test,5.0,3.0,BLUE,True,SS5_D3,5.0,0.0,1.3057,False,
678e92010390e1c202944292,1.0,test,3.0,3.0,BLUE,True,SS3_D3,5.0,0.0,0.7527,False,
678e92010390e1c202944292,1.0,test,5.0,3.0,RED,True,SS5_D3,6.0,1.0,0.7004,False,
678e92010390e1c202944292,1.0,test,3.0,1.0,BLUE,True,SS3_D1,6.0,1.0,1.3687,False,
678e92010390e1c202944292,1.0,test,3.0,1.0,BLUE,False,SS3_D1,5.0,1.0,0.6151,False,
678e92010390e1c202944292,1.0,test,5.0,1.0,RED,False,SS5_D1,5.0,1.0,0.6516,False,
678e92010390e1c202944292,1.0,test,3.0,1.0,RED,False,SS3_D1,5.0,1.0,0.6501,False,
678e92010390e1c202944292,1.0,test,3.0,1.0,RED,True,SS3_D1,6.0,1.0,0.9711,False,
678e92010390e1c202944292,1.0,test,3.0,1.0,BLUE,False,SS3_D1,5.0,1.0,0.5033,False,
678e92010390e1c202944292,1.0,test,5.0,3.0,RED,True,SS5_D3,6.0,1.0,0.9856,False,
678e92010390e1c202944292,1.0,test,3.0,1.0,BLUE,True,SS3_D1,6.0,1.0,0.7196,False,
678e92010390e1c202944292,1.0,test,5.0,1.0,RED,False,SS5_D1,5.0,1.0,1.0678,False,
678e92010390e1c202944292,1.0,test,5.0,1.0,RED,True,SS5_D1,5.0,0.0,0.5139,False,
678e92010390e1c202944292,1.0,test,5.0,1.0,BLUE,True,SS5_D1,6.0,1.0,0.887,False,
678e92010390e1c202944292,1.0,test,3.0,1.0,RED,False,SS3_D1,6.0,0.0,1.4674,False,
678e92010390e1c202944292,1.0,test,3.0,3.0,RED,False,SS3_D3,5.0,1.0,1.998,True,RT outlier in SS3_D3
678e92010390e1c202944292,1.0,test,5.0,3.0,BLUE,True,SS5_D3,6.0,1.0,1.3842,False,
678e92010390e1c202944292,1.0,test,5.0,3.0,BLUE,False,SS5_D3,5.0,1.0,0.9232,False,
678e92010390e1c202944292,1.0,test,3.0,3.0,BLUE,False,SS3_D3,5.0,1.0,0.8187,False,
678e92010390e1c202944292,1.0,test,5.0,3.0,RED,False,SS5_D3,6.0,0.0,0.8514,False,
678e92010390e1c202944292,1.0,test,3.0,3.0,RED,True,SS3_D3,6.0,1.0,0.9003,False,
678e92010390e1c202944292,1.0,test,3.0,3.0,BLUE,True,SS3_D3,5.0,0.0,1.3682,False,
678e92010390e1c202944292,1.0,test,5.0,1.0,BLUE,False,SS5_D1,5.0,1.0,1.1736,False,
678e92010390e1c202944292,1.0,test,3.0,3.0,RED,True,SS3_D3,6.0,1.0,0.6562,False,
678e92010390e1c202944292,1.0,test,5.0,3.0,RED,False,SS5_D3,5.0,1.0,0.8884,False,
678e92010390e1c202944292,1.0,test,5.0,1.0,RED,False,SS5_D1,5.0,1.0,1.1534,False,
678e92010390e1c202944292,1.0,test,3.0,3.0,BLUE,False,SS3_D3,5.0,1.0,0.6729,False,
678e92010390e1c202944292,1.0,test,3.0,1.0,RED,True,SS3_D1,6.0,1.0,0.9369,False,
678e92010390e1c202944292,1.0,test,5.0,1.0,BLUE,True,SS5_D1,6.0,1.0,0.801,False,
678e92010390e1c202944292,1.0,test,3.0,3.0,RED,False,SS3_D3,5.0,1.0,0.6176,False,
678e92010390e1c202944292,1.0,test,3.0,1.0,RED,False,SS3_D1,6.0,0.0,0.7212,False,
678e92010390e1c202944292,1.0,test,5.0,1.0,RED,True,SS5_D1,5.0,0.0,0.9046,False,
678e92010390e1c202944292,1.0,test,5.0,3.0,BLUE,True,SS5_D3,5.0,0.0,0.8681,False,
678e92010390e1c202944292,1.0,test,5.0,1.0,BLUE,False,SS5_D1,5.0,1.0,0.7008,False,
678e92010390e1c202944292,1.0,test,3.0,3.0,BLUE,True,SS3_D3,6.0,1.0,0.8022,False,
678e92010390e1c202944292,1.0,test,3.0,1.0,BLUE,False,SS3_D1,5.0,1.0,0.8008,False,
678e92010390e1c202944292,1.0,test,5.0,3.0,RED,True,SS5_D3,6.0,1.0,0.9389,False,
678e92010390e1c202944292,1.0,test,5.0,3.0,BLUE,False,SS5_D3,5.0,1.0,0.7005,False,
678e92010390e1c202944292,1.0,test,3.0,1.0,BLUE,True,SS3_D1,6.0,1.0,1.0982,False,
64013a8e233aaa42388c821f,1.0,practice,5.0,3.0,RED,True,SS5_D3,5.0,0.0,1.202,False,
64013a8e233aaa42388c821f,1.0,practice,3.0,3.0,BLUE,False,SS3_D3,5.0,1.0,1.316,False,
64013a8e233aaa42388c821f,1.0,practice,5.0,3.0,BLUE,True,SS5_D3,5.0,0.0,0.783,False,
64013a8e233aaa42388c821f,1.0,practice,5.0,1.0,BLUE,False,SS5_D1,5.0,1.0,0.739,False,
64013a8e233aaa42388c821f,1.0,practice,5.0,1.0,RED,False,SS5_D1,5.0,1.0,1.949,False,
64013a8e233aaa42388c821f,1.0,practice,5.0,3.0,BLUE,False,SS5_D3,5.0,1.0,1.366,False,
64013a8e233aaa42388c821f,1.0,practice,3.0,1.0,RED,False,SS3_D1,5.0,1.0,0.817,False,
64013a8e233aaa42388c821f,1.0,practice,3.0,1.0,RED,True,SS3_D1,6.0,1.0,0.552,False,
64013a8e233aaa42388c821f,1.0,practice,5.0,1.0,RED,True,SS5_D1,5.0,0.0,0.75,False,
64013a8e233aaa42388c821f,1.0,practice,5.0,3.0,RED,False,SS5_D3,6.0,0.0,1.303,False,
64013a8e233aaa42388c821f,1.0,practice,3.0,1.0,BLUE,False,SS3_D1,5.0,1.0,0.989,False,
64013a8e233aaa42388c821f,1.0,practice,5.0,1.0,BLUE,True,SS5_D1,6.0,1.0,2.3,False,
64013a8e233aaa42388c821f,1.0,practice,3.0,3.0,RED,False,SS3_D3,5.0,1.0,0.916,False,
64013a8e233aaa42388c821f,1.0,practice,3.0,3.0,BLUE,True,SS3_D3,6.0,1.0,1.224,False,
64013a8e233aaa42388c821f,1.0,practice,3.0,1.0,BLUE,True,SS3_D1,6.0,1.0,1.516,False,
64013a8e233aaa42388c821f,1.0,practice,3.0,3.0,RED,True,SS3_D3,6.0,1.0,0.787,False,
64013a8e233aaa42388c821f,1.0,practice,5.0,3.0,RED,False,SS5_D3,6.0,0.0,0.883,False,
64013a8e233aaa42388c821f,1.0,practice,5.0,3.0,BLUE,True,SS5_D3,6.0,1.0,0.885,False,
64013a8e233aaa42388c821f,1.0,practice,3.0,1.0,RED,True,SS3_D1,6.0,1.0,1.421,False,
64013a8e233aaa42388c821f,1.0,practice,5.0,3.0,BLUE,False,SS5_D3,5.0,1.0,1.253,False,
64013a8e233aaa42388c821f,1.0,practice,3.0,3.0,BLUE,True,SS3_D3,6.0,1.0,0.472,False,
64013a8e233aaa42388c821f,1.0,practice,3.0,1.0,BLUE,True,SS3_D1,6.0,1.0,1.519,False,
64013a8e233aaa42388c821f,1.0,practice,3.0,1.0,BLUE,False,SS3_D1,5.0,1.0,1.232,False,
64013a8e233aaa42388c821f,1.0,practice,5.0,1.0,RED,False,SS5_D1,5.0,1.0,1.182,False,
64013a8e233aaa42388c821f,1.0,practice,5.0,3.0,RED,True,SS5_D3,6.0,1.0,1.216,False,
64013a8e233aaa42388c821f,1.0,practice,3.0,3.0,RED,False,SS3_D3,5.0,1.0,1.082,False,
64013a8e233aaa42388c821f,1.0,practice,3.0,3.0,RED,True,SS3_D3,6.0,1.0,0.751,False,
64013a8e233aaa42388c821f,1.0,practice,3.0,1.0,RED,False,SS3_D1,5.0,1.0,0.733,False,
64013a8e233aaa42388c821f,1.0,practice,3.0,3.0,BLUE,False,SS3_D3,5.0,1.0,0.866,False,
64013a8e233aaa42388c821f,1.0,practice,5.0,1.0,RED,True,SS5_D1,6.0,1.0,0.716,False,
64013a8e233aaa42388c821f,1.0,practice,5.0,1.0,BLUE,False,SS5_D1,5.0,1.0,0.721,False,
64013a8e233aaa42388c821f,1.0,practice,5.0,1.0,BLUE,True,SS5_D1,6.0,1.0,0.916,False,
64013a8e233aaa42388c821f,1.0,test,5.0,3.0,RED,False,SS5_D3,5.0,1.0,0.949,False,
64013a8e233aaa42388c821f,1.0,test,5.0,1.0,BLUE,True,SS5_D1,5.0,0.0,1.034,False,
64013a8e233aaa42388c821f,1.0,test,3.0,3.0,BLUE,True,SS3_D3,5.0,0.0,0.816,False,
64013a8e233aaa42388c821f,1.0,test,3.0,3.0,RED,False,SS3_D3,5.0,1.0,1.282,False,
64013a8e233aaa42388c821f,1.0,test,3.0,3.0,RED,True,SS3_D3,6.0,1.0,0.999,False,
64013a8e233aaa42388c821f,1.0,test,5.0,3.0,BLUE,False,SS5_D3,6.0,0.0,1.132,False,
64013a8e233aaa42388c821f,1.0,test,3.0,1.0,BLUE,False,SS3_D1,5.0,1.0,1.183,False,
64013a8e233aaa42388c821f,1.0,test,3.0,1.0,RED,False,SS3_D1,5.0,1.0,0.734,False,
64013a8e233aaa42388c821f,1.0,test,5.0,1.0,BLUE,False,SS5_D1,5.0,1.0,1.369,False,
64013a8e233aaa42388c821f,1.0,test,3.0,1.0,RED,True,SS3_D1,6.0,1.0,0.732,False,
64013a8e233aaa42388c821f,1.0,test,3.0,3.0,BLUE,False,SS3_D3,5.0,1.0,0.67,False,
64013a8e233aaa42388c821f,1.0,test,5.0,1.0,RED,False,SS5_D1,6.0,0.0,0.907,False,
64013a8e233aaa42388c821f,1.0,test,5.0,1.0,RED,True,SS5_D1,5.0,0.0,0.9,False,
64013a8e233aaa42388c821f,1.0,test,5.0,3.0,RED,True,SS5_D3,6.0,1.0,1.199,False,
64013a8e233aaa42388c821f,1.0,test,3.0,1.0,BLUE,True,SS3_D1,6.0,1.0,1.082,False,
64013a8e233aaa42388c821f,1.0,test,5.0,3.0,BLUE,True,SS5_D3,6.0,1.0,0.933,False,
64013a8e233aaa42388c821f,1.0,test,5.0,3.0,RED,True,SS5_D3,6.0,1.0,0.903,False,
64013a8e233aaa42388c821f,1.0,test,3.0,1.0,RED,False,SS3_D1,5.0,1.0,1.466,False,
64013a8e233aaa42388c821f,1.0,test,5.0,1.0,BLUE,True,SS5_D1,6.0,1.0,0.949,False,
64013a8e233aaa42388c821f,1.0,test,3.0,3.0,BLUE,False,SS3_D3,5.0,1.0,0.65,False,
64013a8e233aaa42388c821f,1.0,test,3.0,1.0,RED,True,SS3_D1,6.0,1.0,0.816,False,
64013a8e233aaa42388c821f,1.0,test,5.0,3.0,RED,False,SS5_D3,5.0,1.0,0.885,False,
64013a8e233aaa42388c821f,1.0,test,3.0,1.0,BLUE,True,SS3_D1,6.0,1.0,1.0,False,
64013a8e233aaa42388c821f,1.0,test,5.0,1.0,BLUE,False,SS5_D1,5.0,1.0,1.05,False,
64013a8e233aaa42388c821f,1.0,test,5.0,1.0,RED,False,SS5_D1,5.0,1.0,0.833,False,
64013a8e233aaa42388c821f,1.0,test,3.0,1.0,BLUE,False,SS3_D1,6.0,0.0,0.8,False,
64013a8e233aaa42388c821f,1.0,test,3.0,3.0,RED,False,SS3_D3,5.0,1.0,0.717,False,
64013a8e233aaa42388c821f,1.0,test,3.0,3.0,BLUE,True,SS3_D3,5.0,0.0,1.266,False,
64013a8e233aaa42388c821f,1.0,test,5.0,3.0,BLUE,True,SS5_D3,5.0,0.0,1.036,False,
64013a8e233aaa42388c821f,1.0,test,5.0,1.0,RED,True,SS5_D1,5.0,0.0,1.207,False,
64013a8e233aaa42388c821f,1.0,test,3.0,3.0,RED,True,SS3_D3,6.0,1.0,1.472,False,
64013a8e233aaa42388c821f,1.0,test,5.0,3.0,BLUE,False,SS5_D3,6.0,0.0,1.422,False,
64013a8e233aaa42388c821f,1.0,test,5.0,1.0,BLUE,True,SS5_D1,6.0,1.0,1.251,False,
64013a8e233aaa42388c821f,1.0,test,3.0,1.0,RED,False,SS3_D1,5.0,1.0,0.921,False,
64013a8e233aaa42388c821f,1.0,test,5.0,1.0,RED,True,SS5_D1,6.0,1.0,1.1,False,
64013a8e233aaa42388c821f,1.0,test,3.0,3.0,BLUE,False,SS3_D3,6.0,0.0,1.284,False,
64013a8e233aaa42388c821f,1.0,test,3.0,1.0,BLUE,False,SS3_D1,5.0,1.0,1.15,False,
64013a8e233aaa42388c821f,1.0,test,3.0,3.0,BLUE,True,SS3_D3,6.0,1.0,1.117,False,
64013a8e233aaa42388c821f,1.0,test,3.0,3.0,RED,False,SS3_D3,5.0,1.0,1.101,False,
64013a8e233aaa42388c821f,1.0,test,5.0,3.0,RED,False,SS5_D3,5.0,1.0,1.804,False,
64013a8e233aaa42388c821f,1.0,test,5.0,3.0,BLUE,False,SS5_D3,5.0,1.0,0.301,False,
64013a8e233aaa42388c821f,1.0,test,5.0,1.0,RED,False,SS5_D1,6.0,0.0,0.802,False,
64013a8e233aaa42388c821f,1.0,test,5.0,3.0,BLUE,True,SS5_D3,6.0,1.0,1.682,False,
64013a8e233aaa42388c821f,1.0,test,3.0,1.0,RED,True,SS3_D1,6.0,1.0,1.635,False,
64013a8e233aaa42388c821f,1.0,test,5.0,1.0,BLUE,False,SS5_D1,5.0,1.0,1.701,False,
64013a8e233aaa42388c821f,1.0,test,3.0,1.0,BLUE,True,SS3_D1,6.0,1.0,2.198,False,
64013a8e233aaa42388c821f,1.0,test,3.0,3.0,RED,True,SS3_D3,6.0,1.0,1.022,False,
64013a8e233aaa42388c821f,1.0,test,5.0,3.0,RED,True,SS5_D3,6.0,1.0,0.985,False,
64013a8e233aaa42388c821f,1.0,test,3.0,3.0,RED,False,SS3_D3,5.0,1.0,0.8,False,
64013a8e233aaa42388c821f,1.0,test,3.0,3.0,BLUE,False,SS3_D3,5.0,1.0,0.733,False,
64013a8e233aaa42388c821f,1.0,test,3.0,3.0,BLUE,True,SS3_D3,6.0,1.0,0.701,False,
64013a8e233aaa42388c821f,1.0,test,5.0,1.0,BLUE,True,SS5_D1,6.0,1.0,2.331,False,
64013a8e233aaa42388c821f,1.0,test,5.0,3.0,RED,True,SS5_D3,5.0,0.0,0.917,False,
64013a8e233aaa42388c821f,1.0,test,3.0,1.0,BLUE,False,SS3_D1,5.0,1.0,0.751,False,
64013a8e233aaa42388c821f,1.0,test,5.0,3.0,BLUE,True,SS5_D3,6.0,1.0,1.953,False,
64013a8e233aaa42388c821f,1.0,test,5.0,1.0,RED,False,SS5_D1,5.0,1.0,2.114,False,
64013a8e233aaa42388c821f,1.0,test,3.0,1.0,BLUE,True,SS3_D1,6.0,1.0,1.883,False,
64013a8e233aaa42388c821f,1.0,test,3.0,1.0,RED,False,SS3_D1,5.0,1.0,1.337,False,
64013a8e233aaa42388c821f,1.0,test,5.0,1.0,RED,True,SS5_D1,5.0,0.0,1.354,False,
64013a8e233aaa42388c821f,1.0,test,5.0,1.0,BLUE,False,SS5_D1,5.0,1.0,0.92,False,
64013a8e233aaa42388c821f,1.0,test,5.0,3.0,BLUE,False,SS5_D3,5.0,1.0,0.921,False,
64013a8e233aaa42388c821f,1.0,test,5.0,3.0,RED,False,SS5_D3,6.0,0.0,2.455,True,RT outlier in SS5_D3
64013a8e233aaa42388c821f,1.0,test,3.0,1.0,RED,True,SS3_D1,6.0,1.0,1.374,False,
64013a8e233aaa42388c821f,1.0,test,3.0,3.0,RED,True,SS3_D3,6.0,1.0,0.883,False,
64013a8e233aaa42388c821f,1.0,test,5.0,3.0,RED,False,SS5_D3,5.0,1.0,1.602,False,
64013a8e233aaa42388c821f,1.0,test,5.0,1.0,RED,True,SS5_D1,5.0,0.0,1.449,False,
64013a8e233aaa42388c821f,1.0,test,5.0,1.0,RED,False,SS5_D1,5.0,1.0,0.833,False,
64013a8e233aaa42388c821f,1.0,test,3.0,3.0,BLUE,True,SS3_D3,5.0,0.0,1.2,False,
64013a8e233aaa42388c821f,1.0,test,3.0,1.0,RED,True,SS3_D1,6.0,1.0,1.514,False,
64013a8e233aaa42388c821f,1.0,test,5.0,1.0,BLUE,False,SS5_D1,6.0,0.0,0.99,False,
64013a8e233aaa42388c821f,1.0,test,5.0,1.0,BLUE,True,SS5_D1,6.0,1.0,0.653,False,
64013a8e233aaa42388c821f,1.0,test,3.0,1.0,RED,False,SS3_D1,6.0,0.0,0.715,False,
64013a8e233aaa42388c821f,1.0,test,3.0,1.0,BLUE,True,SS3_D1,6.0,1.0,1.153,False,
64013a8e233aaa42388c821f,1.0,test,3.0,3.0,RED,False,SS3_D3,5.0,1.0,0.632,False,
64013a8e233aaa42388c821f,1.0,test,5.0,3.0,RED,True,SS5_D3,6.0,1.0,1.154,False,
64013a8e233aaa42388c821f,1.0,test,5.0,3.0,BLUE,False,SS5_D3,5.0,1.0,0.9,False,
64013a8e233aaa42388c821f,1.0,test,3.0,3.0,BLUE,False,SS3_D3,6.0,0.0,1.864,False,
64013a8e233aaa42388c821f,1.0,test,5.0,3.0,BLUE,True,SS5_D3,6.0,1.0,1.47,False,
64013a8e233aaa42388c821f,1.0,test,3.0,1.0,BLUE,False,SS3_D1,5.0,1.0,1.085,False,
64013a8e233aaa42388c821f,1.0,test,3.0,3.0,RED,True,SS3_D3,6.0,1.0,1.234,False,
64013a8e233aaa42388c821f,1.0,test,3.0,1.0,RED,True,SS3_D1,6.0,1.0,1.149,False,
64013a8e233aaa42388c821f,1.0,test,3.0,3.0,RED,False,SS3_D3,5.0,1.0,1.933,False,
64013a8e233aaa42388c821f,1.0,test,3.0,3.0,BLUE,True,SS3_D3,5.0,0.0,2.149,False,
64013a8e233aaa42388c821f,1.0,test,3.0,1.0,RED,False,SS3_D1,5.0,1.0,1.266,False,
64013a8e233aaa42388c821f,1.0,test,3.0,3.0,RED,True,SS3_D3,6.0,1.0,1.856,False,
64013a8e233aaa42388c821f,1.0,test,3.0,1.0,BLUE,False,SS3_D1,6.0,0.0,1.253,False,
64013a8e233aaa42388c821f,1.0,test,5.0,3.0,BLUE,True,SS5_D3,6.0,1.0,1.986,False,
64013a8e233aaa42388c821f,1.0,test,3.0,1.0,BLUE,True,SS3_D1,6.0,1.0,0.999,False,
64013a8e233aaa42388c821f,1.0,test,5.0,1.0,RED,False,SS5_D1,5.0,1.0,2.005,False,
64013a8e233aaa42388c821f,1.0,test,5.0,3.0,RED,True,SS5_D3,6.0,1.0,1.705,False,
64013a8e233aaa42388c821f,1.0,test,5.0,1.0,BLUE,False,SS5_D1,5.0,1.0,0.989,False,
64013a8e233aaa42388c821f,1.0,test,3.0,3.0,BLUE,False,SS3_D3,5.0,1.0,0.784,False,
64013a8e233aaa42388c821f,1.0,test,5.0,3.0,BLUE,False,SS5_D3,5.0,1.0,0.9,False,
64013a8e233aaa42388c821f,1.0,test,5.0,1.0,BLUE,True,SS5_D1,6.0,1.0,1.12,False,
64013a8e233aaa42388c821f,1.0,test,5.0,3.0,RED,False,SS5_D3,5.0,1.0,0.821,False,
64013a8e233aaa42388c821f,1.0,test,5.0,1.0,RED,True,SS5_D1,5.0,0.0,1.149,False,
64013a8e233aaa42388c821f,1.0,test,3.0,3.0,BLUE,False,SS3_D3,5.0,1.0,1.066,False,
64013a8e233aaa42388c821f,1.0,test,5.0,1.0,BLUE,True,SS5_D1,5.0,0.0,1.841,False,
64013a8e233aaa42388c821f,1.0,test,3.0,3.0,RED,True,SS3_D3,5.0,0.0,0.758,False,
64013a8e233aaa42388c821f,1.0,test,3.0,3.0,BLUE,True,SS3_D3,5.0,0.0,1.633,False,
64013a8e233aaa42388c821f,1.0,test,3.0,1.0,RED,False,SS3_D1,5.0,1.0,1.936,False,
64013a8e233aaa42388c821f,1.0,test,5.0,3.0,RED,True,SS5_D3,6.0,1.0,1.507,False,
64013a8e233aaa42388c821f,1.0,test,5.0,3.0,BLUE,True,SS5_D3,6.0,1.0,1.05,False,
64013a8e233aaa42388c821f,1.0,test,5.0,1.0,BLUE,False,SS5_D1,5.0,1.0,3.912,True,RT outlier in SS5_D1
64013a8e233aaa42388c821f,1.0,test,5.0,3.0,BLUE,False,SS5_D3,5.0,1.0,0.742,False,
64013a8e233aaa42388c821f,1.0,test,3.0,1.0,RED,True,SS3_D1,6.0,1.0,2.2,False,
64013a8e233aaa42388c821f,1.0,test,5.0,3.0,RED,False,SS5_D3,5.0,1.0,1.305,False,
64013a8e233aaa42388c821f,1.0,test,3.0,1.0,BLUE,True,SS3_D1,6.0,1.0,1.016,False,
64013a8e233aaa42388c821f,1.0,test,5.0,1.0,RED,False,SS5_D1,5.0,1.0,2.518,False,
64013a8e233aaa42388c821f,1.0,test,3.0,1.0,BLUE,False,SS3_D1,5.0,1.0,3.053,True,RT outlier in SS3_D1
64013a8e233aaa42388c821f,1.0,test,5.0,1.0,RED,True,SS5_D1,6.0,1.0,4.235,True,RT outlier in SS5_D1
64013a8e233aaa42388c821f,1.0,test,3.0,3.0,RED,False,SS3_D3,5.0,1.0,0.783,False,
676379302839a2e46a4d6de5,1.0,practice,5.0,3.0,BLUE,True,SS5_D3,6.0,1.0,9.3766,False,
676379302839a2e46a4d6de5,1.0,practice,5.0,3.0,RED,False,SS5_D3,6.0,0.0,6.1232,False,
676379302839a2e46a4d6de5,1.0,practice,3.0,1.0,RED,True,SS3_D1,6.0,1.0,3.9649,False,
676379302839a2e46a4d6de5,1.0,practice,5.0,1.0,BLUE,True,SS5_D1,6.0,1.0,4.4881,False,
676379302839a2e46a4d6de5,1.0,practice,3.0,3.0,BLUE,False,SS3_D3,5.0,1.0,3.5966,False,
676379302839a2e46a4d6de5,1.0,practice,5.0,1.0,BLUE,False,SS5_D1,5.0,1.0,6.8577,False,
676379302839a2e46a4d6de5,1.0,practice,5.0,3.0,BLUE,False,SS5_D3,6.0,0.0,2.3319,False,
676379302839a2e46a4d6de5,1.0,practice,3.0,3.0,RED,True,SS3_D3,5.0,0.0,3.26,False,
676379302839a2e46a4d6de5,1.0,practice,5.0,1.0,RED,True,SS5_D1,5.0,0.0,1.6377,False,
676379302839a2e46a4d6de5,1.0,practice,5.0,3.0,RED,True,SS5_D3,6.0,1.0,2.4621,False,
676379302839a2e46a4d6de5,1.0,practice,3.0,1.0,RED,False,SS3_D1,5.0,1.0,2.2417,False,
676379302839a2e46a4d6de5,1.0,practice,3.0,3.0,BLUE,True,SS3_D3,5.0,0.0,1.1977,False,
676379302839a2e46a4d6de5,1.0,practice,3.0,1.0,BLUE,False,SS3_D1,5.0,1.0,1.7009,False,
676379302839a2e46a4d6de5,1.0,practice,5.0,1.0,RED,False,SS5_D1,6.0,0.0,0.9331,False,
676379302839a2e46a4d6de5,1.0,practice,3.0,3.0,RED,False,SS3_D3,6.0,0.0,9.1861,False,
676379302839a2e46a4d6de5,1.0,practice,3.0,1.0,BLUE,True,SS3_D1,5.0,0.0,1.6664,False,
676379302839a2e46a4d6de5,1.0,practice,3.0,1.0,RED,False,SS3_D1,5.0,1.0,2.2043,False,
676379302839a2e46a4d6de5,1.0,practice,3.0,3.0,BLUE,False,SS3_D3,6.0,0.0,2.3302,False,
676379302839a2e46a4d6de5,1.0,practice,5.0,1.0,RED,False,SS5_D1,5.0,1.0,1.6932,False,
676379302839a2e46a4d6de5,1.0,practice,5.0,1.0,RED,True,SS5_D1,5.0,0.0,1.5653,False,
676379302839a2e46a4d6de5,1.0,practice,3.0,1.0,RED,True,SS3_D1,6.0,1.0,1.3347,False,
676379302839a2e46a4d6de5,1.0,practice,5.0,1.0,BLUE,False,SS5_D1,5.0,1.0,1.398,False,
676379302839a2e46a4d6de5,1.0,practice,5.0,3.0,BLUE,True,SS5_D3,5.0,0.0,1.2271,False,
676379302839a2e46a4d6de5,1.0,practice,5.0,3.0,RED,True,SS5_D3,5.0,0.0,1.2353,False,
676379302839a2e46a4d6de5,1.0,practice,5.0,3.0,RED,False,SS5_D3,6.0,0.0,2.6824,False,
676379302839a2e46a4d6de5,1.0,practice,3.0,1.0,BLUE,False,SS3_D1,5.0,1.0,1.3343,False,
676379302839a2e46a4d6de5,1.0,practice,3.0,3.0,BLUE,True,SS3_D3,6.0,1.0,2.0002,False,
676379302839a2e46a4d6de5,1.0,practice,3.0,1.0,BLUE,True,SS3_D1,6.0,1.0,1.6348,False,
676379302839a2e46a4d6de5,1.0,practice,3.0,3.0,RED,True,SS3_D3,5.0,0.0,1.9384,False,
676379302839a2e46a4d6de5,1.0,practice,3.0,3.0,RED,False,SS3_D3,6.0,0.0,1.958,False,
676379302839a2e46a4d6de5,1.0,practice,5.0,3.0,BLUE,False,SS5_D3,5.0,1.0,1.0737,False,
676379302839a2e46a4d6de5,1.0,practice,5.0,1.0,BLUE,True,SS5_D1,6.0,1.0,2.2923,False,
676379302839a2e46a4d6de5,1.0,test,5.0,3.0,BLUE,True,SS5_D3,6.0,1.0,2.8327,False,
676379302839a2e46a4d6de5,1.0,test,5.0,1.0,RED,True,SS5_D1,6.0,1.0,1.4585,False,
676379302839a2e46a4d6de5,1.0,test,5.0,3.0,BLUE,False,SS5_D3,6.0,0.0,1.2641,False,
676379302839a2e46a4d6de5,1.0,test,3.0,3.0,BLUE,False,SS3_D3,5.0,1.0,1.3711,False,
676379302839a2e46a4d6de5,1.0,test,5.0,1.0,BLUE,False,SS5_D1,6.0,0.0,1.7039,False,
676379302839a2e46a4d6de5,1.0,test,3.0,1.0,RED,False,SS3_D1,6.0,0.0,2.2325,False,
676379302839a2e46a4d6de5,1.0,test,5.0,3.0,RED,True,SS5_D3,6.0,1.0,1.4962,False,
676379302839a2e46a4d6de5,1.0,test,3.0,3.0,RED,True,SS3_D3,6.0,1.0,2.0313,False,
676379302839a2e46a4d6de5,1.0,test,3.0,3.0,BLUE,True,SS3_D3,6.0,1.0,3.1396,False,
676379302839a2e46a4d6de5,1.0,test,3.0,1.0,RED,True,SS3_D1,5.0,0.0,2.5088,False,
676379302839a2e46a4d6de5,1.0,test,3.0,1.0,BLUE,False,SS3_D1,5.0,1.0,2.0327,False,
676379302839a2e46a4d6de5,1.0,test,3.0,3.0,RED,False,SS3_D3,6.0,0.0,3.2028,False,
676379302839a2e46a4d6de5,1.0,test,3.0,1.0,BLUE,True,SS3_D1,6.0,1.0,4.9696,True,RT outlier in SS3_D1
676379302839a2e46a4d6de5,1.0,test,5.0,1.0,RED,False,SS5_D1,6.0,0.0,1.7351,False,
676379302839a2e46a4d6de5,1.0,test,5.0,3.0,RED,False,SS5_D3,5.0,1.0,4.5645,True,RT outlier in SS5_D3
676379302839a2e46a4d6de5,1.0,test,5.0,1.0,BLUE,True,SS5_D1,5.0,0.0,1.2512,False,
676379302839a2e46a4d6de5,1.0,test,3.0,3.0,BLUE,True,SS3_D3,6.0,1.0,1.1398,False,
676379302839a2e46a4d6de5,1.0,test,3.0,3.0,RED,True,SS3_D3,5.0,0.0,0.985,False,
676379302839a2e46a4d6de5,1.0,test,5.0,3.0,BLUE,False,SS5_D3,5.0,1.0,1.4161,False,
676379302839a2e46a4d6de5,1.0,test,3.0,3.0,RED,False,SS3_D3,6.0,0.0,1.7334,False,
676379302839a2e46a4d6de5,1.0,test,5.0,1.0,RED,False,SS5_D1,6.0,0.0,3.2368,True,RT outlier in SS5_D1
676379302839a2e46a4d6de5,1.0,test,5.0,1.0,BLUE,False,SS5_D1,6.0,0.0,2.8825,False,
676379302839a2e46a4d6de5,1.0,test,3.0,3.0,BLUE,False,SS3_D3,6.0,0.0,2.1454,False,
676379302839a2e46a4d6de5,1.0,test,3.0,1.0,BLUE,True,SS3_D1,6.0,1.0,2.0946,False,
676379302839a2e46a4d6de5,1.0,test,3.0,1.0,BLUE,False,SS3_D1,6.0,0.0,1.8347,False,
676379302839a2e46a4d6de5,1.0,test,5.0,3.0,BLUE,True,SS5_D3,6.0,1.0,1.2907,False,
676379302839a2e46a4d6de5,1.0,test,5.0,1.0,RED,True,SS5_D1,6.0,1.0,2.0993,False,
676379302839a2e46a4d6de5,1.0,test,3.0,1.0,RED,True,SS3_D1,5.0,0.0,1.2198,False,
676379302839a2e46a4d6de5,1.0,test,5.0,1.0,BLUE,True,SS5_D1,5.0,0.0,2.0317,False,
676379302839a2e46a4d6de5,1.0,test,3.0,1.0,RED,False,SS3_D1,5.0,1.0,1.0289,False,
676379302839a2e46a4d6de5,1.0,test,5.0,3.0,RED,False,SS5_D3,5.0,1.0,1.5281,False,
676379302839a2e46a4d6de5,1.0,test,5.0,3.0,RED,True,SS5_D3,5.0,0.0,0.9438,False,
676379302839a2e46a4d6de5,1.0,test,5.0,1.0,BLUE,True,SS5_D1,6.0,1.0,0.9593,False,
676379302839a2e46a4d6de5,1.0,test,3.0,1.0,BLUE,True,SS3_D1,5.0,0.0,1.0563,False,
676379302839a2e46a4d6de5,1.0,test,3.0,3.0,BLUE,True,SS3_D3,6.0,1.0,1.1123,False,
676379302839a2e46a4d6de5,1.0,test,5.0,3.0,BLUE,False,SS5_D3,6.0,0.0,0.8654,False,
676379302839a2e46a4d6de5,1.0,test,3.0,1.0,RED,True,SS3_D1,5.0,0.0,1.2647,False,
676379302839a2e46a4d6de5,1.0,test,5.0,1.0,RED,True,SS5_D1,5.0,0.0,1.2331,False,
676379302839a2e46a4d6de5,1.0,test,5.0,3.0,RED,False,SS5_D3,5.0,1.0,0.865,False,
676379302839a2e46a4d6de5,1.0,test,5.0,1.0,BLUE,False,SS5_D1,5.0,1.0,0.9809,False,
676379302839a2e46a4d6de5,1.0,test,3.0,1.0,RED,False,SS3_D1,6.0,0.0,3.0031,False,
676379302839a2e46a4d6de5,1.0,test,5.0,1.0,RED,False,SS5_D1,6.0,0.0,0.7506,False,
676379302839a2e46a4d6de5,1.0,test,3.0,3.0,BLUE,False,SS3_D3,5.0,1.0,0.894,False,
676379302839a2e46a4d6de5,1.0,test,3.0,3.0,RED,False,SS3_D3,6.0,0.0,0.8019,False,
676379302839a2e46a4d6de5,1.0,test,5.0,3.0,RED,True,SS5_D3,5.0,0.0,0.6452,False,
676379302839a2e46a4d6de5,1.0,test,5.0,3.0,BLUE,True,SS5_D3,6.0,1.0,0.5674,False,
676379302839a2e46a4d6de5,1.0,test,3.0,3.0,RED,True,SS3_D3,6.0,1.0,0.9396,False,
676379302839a2e46a4d6de5,1.0,test,3.0,1.0,BLUE,False,SS3_D1,5.0,1.0,1.1357,False,
676379302839a2e46a4d6de5,1.0,test,5.0,1.0,RED,False,SS5_D1,5.0,1.0,1.0599,False,
676379302839a2e46a4d6de5,1.0,test,3.0,1.0,RED,True,SS3_D1,6.0,1.0,1.7359,False,
676379302839a2e46a4d6de5,1.0,test,3.0,1.0,RED,False,SS3_D1,5.0,1.0,1.2288,False,
676379302839a2e46a4d6de5,1.0,test,3.0,1.0,BLUE,True,SS3_D1,6.0,1.0,1.0283,False,
676379302839a2e46a4d6de5,1.0,test,5.0,1.0,BLUE,False,SS5_D1,5.0,1.0,1.0673,False,
676379302839a2e46a4d6de5,1.0,test,3.0,3.0,RED,False,SS3_D3,5.0,1.0,0.8077,False,
676379302839a2e46a4d6de5,1.0,test,3.0,3.0,BLUE,True,SS3_D3,5.0,0.0,0.7603,False,
676379302839a2e46a4d6de5,1.0,test,5.0,3.0,BLUE,False,SS5_D3,5.0,1.0,0.7339,False,
676379302839a2e46a4d6de5,1.0,test,5.0,3.0,BLUE,True,SS5_D3,6.0,1.0,0.8028,False,
676379302839a2e46a4d6de5,1.0,test,3.0,3.0,RED,True,SS3_D3,5.0,0.0,0.7328,False,
676379302839a2e46a4d6de5,1.0,test,3.0,3.0,BLUE,False,SS3_D3,6.0,0.0,0.5691,False,
676379302839a2e46a4d6de5,1.0,test,5.0,3.0,RED,False,SS5_D3,5.0,1.0,1.4727,False,
676379302839a2e46a4d6de5,1.0,test,3.0,1.0,BLUE,False,SS3_D1,5.0,1.0,3.0608,False,
676379302839a2e46a4d6de5,1.0,test,5.0,3.0,RED,True,SS5_D3,6.0,1.0,3.9585,True,RT outlier in SS5_D3
676379302839a2e46a4d6de5,1.0,test,5.0,1.0,BLUE,True,SS5_D1,6.0,1.0,0.8017,False,
676379302839a2e46a4d6de5,1.0,test,5.0,1.0,BLUE,False,SS5_D1,5.0,1.0,1.373,False,
676379302839a2e46a4d6de5,1.0,test,3.0,1.0,RED,True,SS3_D1,5.0,0.0,1.3603,False,
676379302839a2e46a4d6de5,1.0,test,5.0,1.0,RED,True,SS5_D1,6.0,1.0,0.8821,False,
676379302839a2e46a4d6de5,1.0,test,3.0,1.0,BLUE,False,SS3_D1,5.0,1.0,0.8722,False,
676379302839a2e46a4d6de5,1.0,test,3.0,1.0,RED,False,SS3_D1,6.0,0.0,0.7132,False,
676379302839a2e46a4d6de5,1.0,test,5.0,3.0,RED,True,SS5_D3,6.0,1.0,0.9067,False,
676379302839a2e46a4d6de5,1.0,test,5.0,1.0,RED,False,SS5_D1,5.0,1.0,0.6389,False,
676379302839a2e46a4d6de5,1.0,test,5.0,1.0,BLUE,True,SS5_D1,6.0,1.0,0.6331,False,
676379302839a2e46a4d6de5,1.0,test,3.0,3.0,BLUE,True,SS3_D3,5.0,0.0,0.642,False,
676379302839a2e46a4d6de5,1.0,test,3.0,3.0,RED,True,SS3_D3,6.0,1.0,0.6268,False,
676379302839a2e46a4d6de5,1.0,test,3.0,3.0,RED,False,SS3_D3,5.0,1.0,6.9612,True,RT outlier in SS3_D3
676379302839a2e46a4d6de5,1.0,test,3.0,3.0,BLUE,False,SS3_D3,5.0,1.0,1.6419,False,
676379302839a2e46a4d6de5,1.0,test,3.0,1.0,BLUE,True,SS3_D1,5.0,0.0,1.2338,False,
676379302839a2e46a4d6de5,1.0,test,5.0,3.0,RED,False,SS5_D3,5.0,1.0,1.1314,False,
676379302839a2e46a4d6de5,1.0,test,5.0,3.0,BLUE,False,SS5_D3,5.0,1.0,0.7366,False,
676379302839a2e46a4d6de5,1.0,test,5.0,3.0,BLUE,True,SS5_D3,5.0,0.0,0.9674,False,
676379302839a2e46a4d6de5,1.0,test,3.0,1.0,RED,True,SS3_D1,5.0,0.0,1.1721,False,
676379302839a2e46a4d6de5,1.0,test,5.0,1.0,BLUE,True,SS5_D1,5.0,0.0,0.7078,False,
676379302839a2e46a4d6de5,1.0,test,5.0,3.0,BLUE,True,SS5_D3,6.0,1.0,0.5676,False,
676379302839a2e46a4d6de5,1.0,test,3.0,1.0,BLUE,True,SS3_D1,6.0,1.0,0.8114,False,
676379302839a2e46a4d6de5,1.0,test,3.0,3.0,RED,True,SS3_D3,5.0,0.0,0.5011,False,
676379302839a2e46a4d6de5,1.0,test,5.0,1.0,RED,True,SS5_D1,6.0,1.0,0.642,False,
676379302839a2e46a4d6de5,1.0,test,3.0,1.0,BLUE,False,SS3_D1,5.0,1.0,0.6449,False,
676379302839a2e46a4d6de5,1.0,test,3.0,1.0,RED,False,SS3_D1,6.0,0.0,0.6061,False,
676379302839a2e46a4d6de5,1.0,test,5.0,3.0,RED,True,SS5_D3,5.0,0.0,0.5942,False,
676379302839a2e46a4d6de5,1.0,test,5.0,1.0,RED,False,SS5_D1,5.0,1.0,2.8581,False,
676379302839a2e46a4d6de5,1.0,test,5.0,1.0,BLUE,False,SS5_D1,5.0,1.0,1.464,False,
676379302839a2e46a4d6de5,1.0,test,3.0,3.0,BLUE,True,SS3_D3,6.0,1.0,0.7365,False,
676379302839a2e46a4d6de5,1.0,test,3.0,3.0,BLUE,False,SS3_D3,5.0,1.0,0.8,False,
676379302839a2e46a4d6de5,1.0,test,5.0,3.0,RED,False,SS5_D3,6.0,0.0,0.4682,False,
676379302839a2e46a4d6de5,1.0,test,3.0,3.0,RED,False,SS3_D3,5.0,1.0,0.4934,False,
676379302839a2e46a4d6de5,1.0,test,5.0,3.0,BLUE,False,SS5_D3,5.0,1.0,0.6427,False,
676379302839a2e46a4d6de5,1.0,test,3.0,1.0,BLUE,False,SS3_D1,6.0,0.0,0.8888,False,
676379302839a2e46a4d6de5,1.0,test,3.0,3.0,RED,True,SS3_D3,5.0,0.0,0.5964,False,
676379302839a2e46a4d6de5,1.0,test,5.0,1.0,BLUE,True,SS5_D1,6.0,1.0,0.771,False,
676379302839a2e46a4d6de5,1.0,test,5.0,3.0,BLUE,False,SS5_D3,5.0,1.0,0.7942,False,
676379302839a2e46a4d6de5,1.0,test,5.0,1.0,RED,False,SS5_D1,5.0,1.0,0.8947,False,
676379302839a2e46a4d6de5,1.0,test,5.0,3.0,RED,True,SS5_D3,6.0,1.0,0.9014,False,
676379302839a2e46a4d6de5,1.0,test,3.0,1.0,RED,True,SS3_D1,6.0,1.0,3.9236,False,
676379302839a2e46a4d6de5,1.0,test,5.0,3.0,BLUE,True,SS5_D3,5.0,0.0,0.5328,False,
676379302839a2e46a4d6de5,1.0,test,5.0,3.0,RED,False,SS5_D3,6.0,0.0,0.7381,False,
676379302839a2e46a4d6de5,1.0,test,3.0,3.0,BLUE,False,SS3_D3,5.0,1.0,0.6623,False,
676379302839a2e46a4d6de5,1.0,test,3.0,3.0,RED,False,SS3_D3,5.0,1.0,4.232,False,
676379302839a2e46a4d6de5,1.0,test,5.0,1.0,BLUE,False,SS5_D1,5.0,1.0,0.7321,False,
676379302839a2e46a4d6de5,1.0,test,5.0,1.0,RED,True,SS5_D1,6.0,1.0,0.6686,False,
676379302839a2e46a4d6de5,1.0,test,3.0,3.0,BLUE,True,SS3_D3,5.0,0.0,0.4756,False,
676379302839a2e46a4d6de5,1.0,test,3.0,1.0,BLUE,True,SS3_D1,6.0,1.0,2.393,False,
676379302839a2e46a4d6de5,1.0,test,3.0,1.0,RED,False,SS3_D1,5.0,1.0,2.2348,False,
6754d95f656838004bc46eed,2.0,practice,5.0,1.0,RED,False,SS5_D1,5.0,1.0,2.8617,False,
6754d95f656838004bc46eed,2.0,practice,3.0,3.0,RED,False,SS3_D3,6.0,0.0,1.6827,False,
6754d95f656838004bc46eed,2.0,practice,3.0,1.0,BLUE,True,SS3_D1,5.0,0.0,5.637,False,
6754d95f656838004bc46eed,2.0,practice,5.0,3.0,BLUE,True,SS5_D3,5.0,0.0,4.9663,False,
6754d95f656838004bc46eed,2.0,practice,3.0,3.0,RED,True,SS3_D3,6.0,1.0,1.3996,False,
6754d95f656838004bc46eed,2.0,practice,3.0,3.0,BLUE,True,SS3_D3,6.0,1.0,1.183,False,
6754d95f656838004bc46eed,2.0,practice,5.0,1.0,BLUE,False,SS5_D1,5.0,1.0,1.4341,False,
6754d95f656838004bc46eed,2.0,practice,5.0,3.0,RED,True,SS5_D3,6.0,1.0,1.386,False,
6754d95f656838004bc46eed,2.0,practice,5.0,3.0,RED,False,SS5_D3,6.0,0.0,1.8522,False,
6754d95f656838004bc46eed,2.0,practice,3.0,3.0,BLUE,False,SS3_D3,5.0,1.0,5.6665,False,
6754d95f656838004bc46eed,2.0,practice,3.0,1.0,BLUE,False,SS3_D1,5.0,1.0,1.3329,False,
6754d95f656838004bc46eed,2.0,practice,5.0,1.0,BLUE,True,SS5_D1,6.0,1.0,1.7665,False,
6754d95f656838004bc46eed,2.0,practice,5.0,3.0,BLUE,False,SS5_D3,6.0,0.0,2.2217,False,
6754d95f656838004bc46eed,2.0,practice,5.0,1.0,RED,True,SS5_D1,5.0,0.0,1.122,False,
6754d95f656838004bc46eed,2.0,practice,3.0,1.0,RED,True,SS3_D1,6.0,1.0,1.451,False,
6754d95f656838004bc46eed,2.0,practice,3.0,1.0,RED,False,SS3_D1,5.0,1.0,4.1663,False,
6754d95f656838004bc46eed,2.0,practice,5.0,3.0,BLUE,True,SS5_D3,5.0,0.0,1.2002,False,
6754d95f656838004bc46eed,2.0,practice,5.0,1.0,BLUE,True,SS5_D1,5.0,0.0,3.6845,False,
6754d95f656838004bc46eed,2.0,practice,5.0,1.0,RED,False,SS5_D1,6.0,0.0,1.967,False,
6754d95f656838004bc46eed,2.0,practice,3.0,1.0,RED,False,SS3_D1,5.0,1.0,0.9999,False,
6754d95f656838004bc46eed,2.0,practice,5.0,3.0,BLUE,False,SS5_D3,5.0,1.0,1.9153,False,
6754d95f656838004bc46eed,2.0,practice,3.0,3.0,BLUE,False,SS3_D3,5.0,1.0,2.961,False,
6754d95f656838004bc46eed,2.0,practice,3.0,1.0,BLUE,True,SS3_D1,6.0,1.0,1.4164,False,
6754d95f656838004bc46eed,2.0,practice,3.0,1.0,RED,True,SS3_D1,6.0,1.0,1.0535,False,
6754d95f656838004bc46eed,2.0,practice,3.0,3.0,RED,True,SS3_D3,5.0,0.0,1.4834,False,
6754d95f656838004bc46eed,2.0,practice,5.0,3.0,RED,True,SS5_D3,6.0,1.0,3.6002,False,
6754d95f656838004bc46eed,2.0,practice,5.0,3.0,RED,False,SS5_D3,6.0,0.0,1.6999,False,
6754d95f656838004bc46eed,2.0,practice,5.0,1.0,RED,True,SS5_D1,5.0,0.0,0.8887,False,
6754d95f656838004bc46eed,2.0,practice,3.0,3.0,RED,False,SS3_D3,5.0,1.0,1.3512,False,
6754d95f656838004bc46eed,2.0,practice,5.0,1.0,BLUE,False,SS5_D1,5.0,1.0,1.6191,False,
6754d95f656838004bc46eed,2.0,practice,3.0,3.0,BLUE,True,SS3_D3,6.0,1.0,1.1498,False,
6754d95f656838004bc46eed,2.0,practice,3.0,1.0,BLUE,False,SS3_D1,5.0,1.0,1.0278,False,
6754d95f656838004bc46eed,2.0,test,5.0,1.0,RED,False,SS5_D1,5.0,1.0,1.3206,False,
6754d95f656838004bc46eed,2.0,test,3.0,3.0,RED,False,SS3_D3,5.0,1.0,3.8556,False,
6754d95f656838004bc46eed,2.0,test,5.0,3.0,RED,False,SS5_D3,6.0,0.0,1.8336,False,
6754d95f656838004bc46eed,2.0,test,5.0,1.0,BLUE,False,SS5_D1,5.0,1.0,1.3834,False,
6754d95f656838004bc46eed,2.0,test,5.0,1.0,BLUE,True,SS5_D1,6.0,1.0,1.6165,False,
6754d95f656838004bc46eed,2.0,test,3.0,1.0,BLUE,True,SS3_D1,6.0,1.0,2.2322,False,
6754d95f656838004bc46eed,2.0,test,3.0,1.0,RED,True,SS3_D1,5.0,0.0,1.549,False,
6754d95f656838004bc46eed,2.0,test,3.0,3.0,RED,True,SS3_D3,6.0,1.0,1.3655,False,
6754d95f656838004bc46eed,2.0,test,5.0,3.0,BLUE,True,SS5_D3,5.0,0.0,3.4167,False,
6754d95f656838004bc46eed,2.0,test,3.0,1.0,BLUE,False,SS3_D1,5.0,1.0,0.9605,False,
6754d95f656838004bc46eed,2.0,test,3.0,3.0,BLUE,True,SS3_D3,6.0,1.0,2.0116,False,
6754d95f656838004bc46eed,2.0,test,5.0,3.0,BLUE,False,SS5_D3,5.0,1.0,3.6819,False,
6754d95f656838004bc46eed,2.0,test,3.0,1.0,RED,False,SS3_D1,5.0,1.0,1.0511,False,
6754d95f656838004bc46eed,2.0,test,3.0,3.0,BLUE,False,SS3_D3,5.0,1.0,2.4281,False,
6754d95f656838004bc46eed,2.0,test,5.0,3.0,RED,True,SS5_D3,6.0,1.0,2.5814,False,
6754d95f656838004bc46eed,2.0,test,5.0,1.0,RED,True,SS5_D1,6.0,1.0,2.3996,False,
6754d95f656838004bc46eed,2.0,test,5.0,3.0,BLUE,False,SS5_D3,5.0,1.0,1.2836,False,
6754d95f656838004bc46eed,2.0,test,3.0,1.0,BLUE,False,SS3_D1,5.0,1.0,1.5715,False,
6754d95f656838004bc46eed,2.0,test,5.0,1.0,RED,False,SS5_D1,5.0,1.0,2.1514,False,
6754d95f656838004bc46eed,2.0,test,3.0,3.0,BLUE,True,SS3_D3,6.0,1.0,1.487,False,
6754d95f656838004bc46eed,2.0,test,5.0,3.0,BLUE,True,SS5_D3,6.0,1.0,1.7999,False,
6754d95f656838004bc46eed,2.0,test,3.0,1.0,RED,True,SS3_D1,5.0,0.0,3.65,True,RT outlier in SS3_D1
6754d95f656838004bc46eed,2.0,test,3.0,3.0,RED,False,SS3_D3,5.0,1.0,2.1478,False,
6754d95f656838004bc46eed,2.0,test,3.0,3.0,RED,True,SS3_D3,6.0,1.0,5.0218,False,
6754d95f656838004bc46eed,2.0,test,3.0,3.0,BLUE,False,SS3_D3,5.0,1.0,1.5721,False,
6754d95f656838004bc46eed,2.0,test,5.0,1.0,RED,True,SS5_D1,5.0,0.0,1.8498,False,
6754d95f656838004bc46eed,2.0,test,5.0,1.0,BLUE,True,SS5_D1,6.0,1.0,1.6657,False,
6754d95f656838004bc46eed,2.0,test,3.0,1.0,RED,False,SS3_D1,5.0,1.0,3.8486,True,RT outlier in SS3_D1
6754d95f656838004bc46eed,2.0,test,5.0,1.0,BLUE,False,SS5_D1,5.0,1.0,1.5153,False,
6754d95f656838004bc46eed,2.0,test,5.0,3.0,RED,True,SS5_D3,6.0,1.0,1.7615,False,
6754d95f656838004bc46eed,2.0,test,5.0,3.0,RED,False,SS5_D3,5.0,1.0,1.7836,False,
6754d95f656838004bc46eed,2.0,test,3.0,1.0,BLUE,True,SS3_D1,6.0,1.0,3.2338,False,
6754d95f656838004bc46eed,2.0,test,3.0,3.0,RED,False,SS3_D3,5.0,1.0,1.6337,False,
6754d95f656838004bc46eed,2.0,test,5.0,3.0,RED,False,SS5_D3,5.0,1.0,1.6667,False,
6754d95f656838004bc46eed,2.0,test,5.0,3.0,BLUE,True,SS5_D3,5.0,0.0,1.2167,False,
6754d95f656838004bc46eed,2.0,test,5.0,1.0,BLUE,True,SS5_D1,5.0,0.0,1.7168,False,
6754d95f656838004bc46eed,2.0,test,5.0,1.0,RED,True,SS5_D1,5.0,0.0,1.8162,False,
6754d95f656838004bc46eed,2.0,test,3.0,1.0,RED,False,SS3_D1,5.0,1.0,1.2666,False,
6754d95f656838004bc46eed,2.0,test,5.0,3.0,RED,True,SS5_D3,5.0,0.0,1.6498,False,
6754d95f656838004bc46eed,2.0,test,3.0,1.0,RED,True,SS3_D1,6.0,1.0,1.7016,False,
6754d95f656838004bc46eed,2.0,test,3.0,3.0,RED,True,SS3_D3,6.0,1.0,2.0832,False,
6754d95f656838004bc46eed,2.0,test,5.0,1.0,BLUE,False,SS5_D1,5.0,1.0,1.8497,False,
6754d95f656838004bc46eed,2.0,test,5.0,1.0,RED,False,SS5_D1,5.0,1.0,1.678,False,
6754d95f656838004bc46eed,2.0,test,5.0,3.0,BLUE,False,SS5_D3,6.0,0.0,1.9302,False,
6754d95f656838004bc46eed,2.0,test,3.0,1.0,BLUE,False,SS3_D1,5.0,1.0,1.2371,False,
6754d95f656838004bc46eed,2.0,test,3.0,1.0,BLUE,True,SS3_D1,6.0,1.0,1.9468,False,
6754d95f656838004bc46eed,2.0,test,3.0,3.0,BLUE,True,SS3_D3,6.0,1.0,1.4019,False,
6754d95f656838004bc46eed,2.0,test,3.0,3.0,BLUE,False,SS3_D3,6.0,0.0,1.5488,False,
6754d95f656838004bc46eed,2.0,test,3.0,1.0,BLUE,True,SS3_D1,6.0,1.0,1.8971,False,
6754d95f656838004bc46eed,2.0,test,5.0,3.0,BLUE,True,SS5_D3,6.0,1.0,1.5499,False,
6754d95f656838004bc46eed,2.0,test,5.0,3.0,RED,True,SS5_D3,6.0,1.0,1.3818,False,
6754d95f656838004bc46eed,2.0,test,5.0,3.0,BLUE,False,SS5_D3,5.0,1.0,1.4539,False,
6754d95f656838004bc46eed,2.0,test,3.0,1.0,RED,True,SS3_D1,6.0,1.0,1.8388,False,
6754d95f656838004bc46eed,2.0,test,3.0,1.0,RED,False,SS3_D1,5.0,1.0,1.1512,False,
6754d95f656838004bc46eed,2.0,test,5.0,1.0,RED,False,SS5_D1,5.0,1.0,1.6168,False,
6754d95f656838004bc46eed,2.0,test,5.0,1.0,RED,True,SS5_D1,5.0,0.0,0.934,False,
6754d95f656838004bc46eed,2.0,test,5.0,3.0,RED,False,SS5_D3,5.0,1.0,1.2658,False,
6754d95f656838004bc46eed,2.0,test,5.0,1.0,BLUE,False,SS5_D1,5.0,1.0,2.887,False,
6754d95f656838004bc46eed,2.0,test,3.0,3.0,RED,True,SS3_D3,6.0,1.0,1.0381,False,
6754d95f656838004bc46eed,2.0,test,3.0,3.0,BLUE,False,SS3_D3,5.0,1.0,1.6169,False,
6754d95f656838004bc46eed,2.0,test,3.0,1.0,BLUE,False,SS3_D1,5.0,1.0,1.5002,False,
6754d95f656838004bc46eed,2.0,test,3.0,3.0,RED,False,SS3_D3,5.0,1.0,1.5839,False,
6754d95f656838004bc46eed,2.0,test,5.0,1.0,BLUE,True,SS5_D1,6.0,1.0,4.0692,True,RT outlier in SS5_D1
6754d95f656838004bc46eed,2.0,test,3.0,3.0,BLUE,True,SS3_D3,6.0,1.0,2.5004,False,
6754d95f656838004bc46eed,2.0,test,3.0,1.0,RED,False,SS3_D1,5.0,1.0,1.4359,False,
6754d95f656838004bc46eed,2.0,test,3.0,1.0,BLUE,False,SS3_D1,5.0,1.0,1.5211,False,
6754d95f656838004bc46eed,2.0,test,3.0,3.0,RED,True,SS3_D3,6.0,1.0,0.9888,False,
6754d95f656838004bc46eed,2.0,test,5.0,3.0,BLUE,True,SS5_D3,5.0,0.0,3.383,False,
6754d95f656838004bc46eed,2.0,test,3.0,3.0,RED,False,SS3_D3,5.0,1.0,2.6506,False,
6754d95f656838004bc46eed,2.0,test,5.0,1.0,RED,False,SS5_D1,5.0,1.0,1.3131,False,
6754d95f656838004bc46eed,2.0,test,5.0,3.0,RED,True,SS5_D3,5.0,0.0,1.3163,False,
6754d95f656838004bc46eed,2.0,test,5.0,1.0,RED,True,SS5_D1,5.0,0.0,1.301,False,
6754d95f656838004bc46eed,2.0,test,5.0,3.0,RED,False,SS5_D3,5.0,1.0,2.0788,False,
6754d95f656838004bc46eed,2.0,test,3.0,1.0,RED,True,SS3_D1,6.0,1.0,1.1667,False,
6754d95f656838004bc46eed,2.0,test,5.0,3.0,BLUE,False,SS5_D3,5.0,1.0,1.2159,False,
6754d95f656838004bc46eed,2.0,test,3.0,1.0,BLUE,True,SS3_D1,6.0,1.0,1.054,False,
6754d95f656838004bc46eed,2.0,test,3.0,3.0,BLUE,False,SS3_D3,5.0,1.0,2.7527,False,
6754d95f656838004bc46eed,2.0,test,5.0,1.0,BLUE,True,SS5_D1,6.0,1.0,4.0282,True,RT outlier in SS5_D1
6754d95f656838004bc46eed,2.0,test,3.0,3.0,BLUE,True,SS3_D3,6.0,1.0,1.0334,False,
6754d95f656838004bc46eed,2.0,test,5.0,1.0,BLUE,False,SS5_D1,5.0,1.0,1.7986,False,
6754d95f656838004bc46eed,2.0,test,3.0,1.0,RED,True,SS3_D1,6.0,1.0,1.3166,False,
6754d95f656838004bc46eed,2.0,test,5.0,3.0,RED,False,SS5_D3,5.0,1.0,1.8641,False,
6754d95f656838004bc46eed,2.0,test,5.0,3.0,BLUE,False,SS5_D3,5.0,1.0,1.4666,False,
6754d95f656838004bc46eed,2.0,test,5.0,3.0,BLUE,True,SS5_D3,6.0,1.0,4.5292,False,
6754d95f656838004bc46eed,2.0,test,5.0,1.0,RED,False,SS5_D1,5.0,1.0,1.7836,False,
6754d95f656838004bc46eed,2.0,test,3.0,1.0,BLUE,False,SS3_D1,5.0,1.0,1.737,False,
6754d95f656838004bc46eed,2.0,test,3.0,3.0,BLUE,False,SS3_D3,5.0,1.0,1.9015,False,
6754d95f656838004bc46eed,2.0,test,5.0,1.0,RED,True,SS5_D1,6.0,1.0,1.5175,False,
6754d95f656838004bc46eed,2.0,test,3.0,3.0,RED,False,SS3_D3,5.0,1.0,1.4613,False,
6754d95f656838004bc46eed,2.0,test,5.0,1.0,BLUE,True,SS5_D1,6.0,1.0,1.554,False,
6754d95f656838004bc46eed,2.0,test,3.0,3.0,RED,True,SS3_D3,6.0,1.0,1.134,False,
6754d95f656838004bc46eed,2.0,test,5.0,3.0,RED,True,SS5_D3,6.0,1.0,4.8335,True,RT outlier in SS5_D3
6754d95f656838004bc46eed,2.0,test,3.0,3.0,BLUE,True,SS3_D3,5.0,0.0,6.6877,True,RT outlier in SS3_D3
6754d95f656838004bc46eed,2.0,test,3.0,1.0,RED,False,SS3_D1,5.0,1.0,1.0622,False,
6754d95f656838004bc46eed,2.0,test,5.0,1.0,BLUE,False,SS5_D1,6.0,0.0,1.9863,False,
6754d95f656838004bc46eed,2.0,test,3.0,1.0,BLUE,True,SS3_D1,6.0,1.0,1.563,False,
6754d95f656838004bc46eed,2.0,test,5.0,3.0,RED,False,SS5_D3,5.0,1.0,1.6001,False,
6754d95f656838004bc46eed,2.0,test,5.0,1.0,BLUE,False,SS5_D1,5.0,1.0,1.5183,False,
6754d95f656838004bc46eed,2.0,test,3.0,1.0,BLUE,True,SS3_D1,6.0,1.0,1.8301,False,
6754d95f656838004bc46eed,2.0,test,5.0,1.0,BLUE,True,SS5_D1,5.0,0.0,1.9664,False,
6754d95f656838004bc46eed,2.0,test,3.0,1.0,RED,True,SS3_D1,5.0,0.0,2.1495,False,
6754d95f656838004bc46eed,2.0,test,5.0,3.0,BLUE,True,SS5_D3,6.0,1.0,3.0837,False,
6754d95f656838004bc46eed,2.0,test,5.0,3.0,BLUE,False,SS5_D3,5.0,1.0,1.962,False,
6754d95f656838004bc46eed,2.0,test,5.0,3.0,RED,True,SS5_D3,6.0,1.0,1.6005,False,
6754d95f656838004bc46eed,2.0,test,3.0,3.0,BLUE,True,SS3_D3,6.0,1.0,1.1033,False,
6754d95f656838004bc46eed,2.0,test,3.0,3.0,RED,True,SS3_D3,6.0,1.0,1.15,False,
6754d95f656838004bc46eed,2.0,test,3.0,1.0,BLUE,False,SS3_D1,5.0,1.0,1.0349,False,
6754d95f656838004bc46eed,2.0,test,3.0,1.0,RED,False,SS3_D1,5.0,1.0,1.8661,False,
6754d95f656838004bc46eed,2.0,test,5.0,1.0,RED,False,SS5_D1,5.0,1.0,1.4866,False,
6754d95f656838004bc46eed,2.0,test,5.0,1.0,RED,True,SS5_D1,6.0,1.0,1.2168,False,
6754d95f656838004bc46eed,2.0,test,3.0,3.0,BLUE,False,SS3_D3,5.0,1.0,0.9165,False,
6754d95f656838004bc46eed,2.0,test,3.0,3.0,RED,False,SS3_D3,5.0,1.0,1.2829,False,
672ba9e5dbe3b9649ad3864d,1.0,practice,5.0,1.0,BLUE,False,SS5_D1,6.0,0.0,0.0343,False,
672ba9e5dbe3b9649ad3864d,1.0,practice,3.0,1.0,RED,False,SS3_D1,5.0,1.0,1.0477,False,
672ba9e5dbe3b9649ad3864d,1.0,practice,5.0,3.0,BLUE,True,SS5_D3,5.0,0.0,1.0488,False,
672ba9e5dbe3b9649ad3864d,1.0,practice,3.0,3.0,BLUE,True,SS3_D3,5.0,0.0,0.9624,False,
672ba9e5dbe3b9649ad3864d,1.0,practice,5.0,1.0,RED,False,SS5_D1,5.0,1.0,1.1107,False,
672ba9e5dbe3b9649ad3864d,1.0,practice,5.0,1.0,BLUE,True,SS5_D1,5.0,0.0,1.4057,False,
672ba9e5dbe3b9649ad3864d,1.0,practice,3.0,3.0,RED,True,SS3_D3,5.0,0.0,1.8494,False,
672ba9e5dbe3b9649ad3864d,1.0,practice,5.0,3.0,BLUE,False,SS5_D3,5.0,1.0,1.722,False,
672ba9e5dbe3b9649ad3864d,1.0,practice,5.0,3.0,RED,False,SS5_D3,5.0,1.0,5.4197,False,
672ba9e5dbe3b9649ad3864d,1.0,practice,5.0,1.0,RED,True,SS5_D1,6.0,1.0,1.5825,False,
672ba9e5dbe3b9649ad3864d,1.0,practice,3.0,3.0,BLUE,False,SS3_D3,5.0,1.0,1.1912,False,
672ba9e5dbe3b9649ad3864d,1.0,practice,3.0,1.0,BLUE,False,SS3_D1,5.0,1.0,2.0329,False,
672ba9e5dbe3b9649ad3864d,1.0,practice,3.0,3.0,RED,False,SS3_D3,5.0,1.0,1.9325,False,
672ba9e5dbe3b9649ad3864d,1.0,practice,5.0,3.0,RED,True,SS5_D3,6.0,1.0,1.9152,False,
672ba9e5dbe3b9649ad3864d,1.0,practice,3.0,1.0,BLUE,True,SS3_D1,5.0,0.0,1.8633,False,
672ba9e5dbe3b9649ad3864d,1.0,practice,5.0,1.0,BLUE,True,SS5_D1,6.0,1.0,1.5097,False,
672ba9e5dbe3b9649ad3864d,1.0,practice,3.0,1.0,RED,True,SS3_D1,6.0,1.0,1.3166,False,
672ba9e5dbe3b9649ad3864d,1.0,practice,3.0,3.0,BLUE,False,SS3_D3,5.0,1.0,1.0037,False,
672ba9e5dbe3b9649ad3864d,1.0,practice,3.0,1.0,RED,False,SS3_D1,5.0,1.0,1.2383,False,
672ba9e5dbe3b9649ad3864d,1.0,practice,5.0,3.0,BLUE,False,SS5_D3,5.0,1.0,1.0927,False,
672ba9e5dbe3b9649ad3864d,1.0,practice,3.0,3.0,RED,True,SS3_D3,6.0,1.0,1.5382,False,
672ba9e5dbe3b9649ad3864d,1.0,practice,5.0,1.0,BLUE,False,SS5_D1,6.0,0.0,1.5492,False,
672ba9e5dbe3b9649ad3864d,1.0,practice,5.0,3.0,RED,True,SS5_D3,5.0,0.0,1.4373,False,
672ba9e5dbe3b9649ad3864d,1.0,practice,3.0,3.0,BLUE,True,SS3_D3,6.0,1.0,1.4046,False,
672ba9e5dbe3b9649ad3864d,1.0,practice,3.0,1.0,BLUE,False,SS3_D1,5.0,1.0,1.1652,False,
672ba9e5dbe3b9649ad3864d,1.0,practice,5.0,1.0,RED,True,SS5_D1,6.0,1.0,1.6008,False,
672ba9e5dbe3b9649ad3864d,1.0,practice,5.0,3.0,RED,False,SS5_D3,5.0,1.0,1.6022,False,
672ba9e5dbe3b9649ad3864d,1.0,practice,5.0,1.0,RED,False,SS5_D1,6.0,0.0,0.9856,False,
672ba9e5dbe3b9649ad3864d,1.0,practice,5.0,3.0,BLUE,True,SS5_D3,5.0,0.0,0.7621,False,
672ba9e5dbe3b9649ad3864d,1.0,practice,3.0,3.0,RED,False,SS3_D3,5.0,1.0,1.1171,False,
672ba9e5dbe3b9649ad3864d,1.0,practice,3.0,1.0,BLUE,True,SS3_D1,6.0,1.0,1.3924,False,
672ba9e5dbe3b9649ad3864d,1.0,test,3.0,1.0,RED,False,SS3_D1,5.0,1.0,1.0036,False,
672ba9e5dbe3b9649ad3864d,1.0,test,5.0,1.0,BLUE,False,SS5_D1,5.0,1.0,0.904,False,
672ba9e5dbe3b9649ad3864d,1.0,test,3.0,1.0,BLUE,True,SS3_D1,5.0,0.0,1.0722,False,
672ba9e5dbe3b9649ad3864d,1.0,test,3.0,1.0,RED,True,SS3_D1,6.0,1.0,1.1351,False,
672ba9e5dbe3b9649ad3864d,1.0,test,3.0,3.0,BLUE,False,SS3_D3,5.0,1.0,1.2669,False,
672ba9e5dbe3b9649ad3864d,1.0,test,5.0,1.0,RED,False,SS5_D1,5.0,1.0,1.232,False,
672ba9e5dbe3b9649ad3864d,1.0,test,5.0,1.0,BLUE,True,SS5_D1,5.0,0.0,1.0107,False,
672ba9e5dbe3b9649ad3864d,1.0,test,5.0,1.0,RED,True,SS5_D1,6.0,1.0,2.0061,False,
672ba9e5dbe3b9649ad3864d,1.0,test,5.0,3.0,RED,True,SS5_D3,5.0,0.0,1.3353,False,
672ba9e5dbe3b9649ad3864d,1.0,test,5.0,3.0,BLUE,False,SS5_D3,5.0,1.0,1.01,False,
672ba9e5dbe3b9649ad3864d,1.0,test,3.0,3.0,BLUE,True,SS3_D3,5.0,0.0,1.4714,False,
672ba9e5dbe3b9649ad3864d,1.0,test,5.0,3.0,BLUE,True,SS5_D3,5.0,0.0,1.083,False,
672ba9e5dbe3b9649ad3864d,1.0,test,3.0,1.0,BLUE,False,SS3_D1,5.0,1.0,0.9853,False,
672ba9e5dbe3b9649ad3864d,1.0,test,5.0,3.0,RED,False,SS5_D3,5.0,1.0,0.9531,False,
672ba9e5dbe3b9649ad3864d,1.0,test,3.0,3.0,RED,False,SS3_D3,5.0,1.0,0.9166,False,
672ba9e5dbe3b9649ad3864d,1.0,test,3.0,3.0,RED,True,SS3_D3,6.0,1.0,2.4096,False,
672ba9e5dbe3b9649ad3864d,1.0,test,3.0,3.0,RED,False,SS3_D3,5.0,1.0,0.9871,False,
672ba9e5dbe3b9649ad3864d,1.0,test,5.0,1.0,RED,False,SS5_D1,5.0,1.0,1.1577,False,
672ba9e5dbe3b9649ad3864d,1.0,test,3.0,1.0,BLUE,True,SS3_D1,5.0,0.0,1.38,False,
672ba9e5dbe3b9649ad3864d,1.0,test,5.0,1.0,BLUE,True,SS5_D1,5.0,0.0,1.6041,False,
672ba9e5dbe3b9649ad3864d,1.0,test,3.0,3.0,BLUE,True,SS3_D3,6.0,1.0,1.6596,False,
672ba9e5dbe3b9649ad3864d,1.0,test,3.0,3.0,BLUE,False,SS3_D3,5.0,1.0,1.0191,False,
672ba9e5dbe3b9649ad3864d,1.0,test,3.0,3.0,RED,True,SS3_D3,6.0,1.0,2.1627,False,
672ba9e5dbe3b9649ad3864d,1.0,test,5.0,1.0,RED,True,SS5_D1,5.0,0.0,2.4447,False,
672ba9e5dbe3b9649ad3864d,1.0,test,5.0,3.0,RED,True,SS5_D3,5.0,0.0,1.35,False,
672ba9e5dbe3b9649ad3864d,1.0,test,3.0,1.0,RED,False,SS3_D1,5.0,1.0,0.852,False,
672ba9e5dbe3b9649ad3864d,1.0,test,5.0,3.0,RED,False,SS5_D3,5.0,1.0,1.5848,False,
672ba9e5dbe3b9649ad3864d,1.0,test,5.0,3.0,BLUE,False,SS5_D3,5.0,1.0,1.287,False,
672ba9e5dbe3b9649ad3864d,1.0,test,5.0,1.0,BLUE,False,SS5_D1,5.0,1.0,1.5537,False,
672ba9e5dbe3b9649ad3864d,1.0,test,5.0,3.0,BLUE,True,SS5_D3,6.0,1.0,1.2659,False,
672ba9e5dbe3b9649ad3864d,1.0,test,3.0,1.0,RED,True,SS3_D1,6.0,1.0,1.2882,False,
672ba9e5dbe3b9649ad3864d,1.0,test,3.0,1.0,BLUE,False,SS3_D1,5.0,1.0,1.2534,False,
672ba9e5dbe3b9649ad3864d,1.0,test,3.0,3.0,RED,True,SS3_D3,6.0,1.0,1.2069,False,
672ba9e5dbe3b9649ad3864d,1.0,test,5.0,1.0,BLUE,False,SS5_D1,5.0,1.0,1.0686,False,
672ba9e5dbe3b9649ad3864d,1.0,test,3.0,3.0,BLUE,False,SS3_D3,5.0,1.0,1.338,False,
672ba9e5dbe3b9649ad3864d,1.0,test,3.0,1.0,BLUE,False,SS3_D1,5.0,1.0,1.1678,False,
672ba9e5dbe3b9649ad3864d,1.0,test,5.0,1.0,BLUE,True,SS5_D1,5.0,0.0,1.1014,False,
672ba9e5dbe3b9649ad3864d,1.0,test,5.0,3.0,BLUE,True,SS5_D3,6.0,1.0,1.0492,False,
672ba9e5dbe3b9649ad3864d,1.0,test,3.0,3.0,RED,False,SS3_D3,5.0,1.0,1.702,False,
672ba9e5dbe3b9649ad3864d,1.0,test,5.0,1.0,RED,False,SS5_D1,5.0,1.0,1.3771,False,
672ba9e5dbe3b9649ad3864d,1.0,test,3.0,1.0,BLUE,True,SS3_D1,6.0,1.0,1.3529,False,
672ba9e5dbe3b9649ad3864d,1.0,test,3.0,3.0,BLUE,True,SS3_D3,6.0,1.0,1.2185,False,
672ba9e5dbe3b9649ad3864d,1.0,test,5.0,3.0,RED,False,SS5_D3,5.0,1.0,1.8803,False,
672ba9e5dbe3b9649ad3864d,1.0,test,3.0,1.0,RED,True,SS3_D1,5.0,0.0,1.9322,False,
672ba9e5dbe3b9649ad3864d,1.0,test,5.0,3.0,BLUE,False,SS5_D3,5.0,1.0,1.2381,False,
672ba9e5dbe3b9649ad3864d,1.0,test,5.0,3.0,RED,True,SS5_D3,6.0,1.0,1.257,False,
672ba9e5dbe3b9649ad3864d,1.0,test,3.0,1.0,RED,False,SS3_D1,5.0,1.0,1.7747,False,
672ba9e5dbe3b9649ad3864d,1.0,test,5.0,1.0,RED,True,SS5_D1,6.0,1.0,1.6573,False,
672ba9e5dbe3b9649ad3864d,1.0,test,3.0,1.0,RED,True,SS3_D1,6.0,1.0,1.15,False,
672ba9e5dbe3b9649ad3864d,1.0,test,3.0,3.0,RED,False,SS3_D3,5.0,1.0,2.734,False,
672ba9e5dbe3b9649ad3864d,1.0,test,3.0,3.0,BLUE,False,SS3_D3,5.0,1.0,0.9938,False,
672ba9e5dbe3b9649ad3864d,1.0,test,5.0,1.0,RED,True,SS5_D1,5.0,0.0,1.4997,False,
672ba9e5dbe3b9649ad3864d,1.0,test,3.0,1.0,RED,False,SS3_D1,5.0,1.0,1.2024,False,
672ba9e5dbe3b9649ad3864d,1.0,test,5.0,1.0,RED,False,SS5_D1,6.0,0.0,1.1679,False,
672ba9e5dbe3b9649ad3864d,1.0,test,5.0,1.0,BLUE,True,SS5_D1,5.0,0.0,1.8344,False,
672ba9e5dbe3b9649ad3864d,1.0,test,5.0,3.0,BLUE,False,SS5_D3,6.0,0.0,2.3869,False,
672ba9e5dbe3b9649ad3864d,1.0,test,5.0,3.0,BLUE,True,SS5_D3,5.0,0.0,1.4339,False,
672ba9e5dbe3b9649ad3864d,1.0,test,3.0,3.0,BLUE,True,SS3_D3,5.0,0.0,2.4375,False,
672ba9e5dbe3b9649ad3864d,1.0,test,5.0,3.0,RED,False,SS5_D3,5.0,1.0,1.9356,False,
672ba9e5dbe3b9649ad3864d,1.0,test,5.0,3.0,RED,True,SS5_D3,5.0,0.0,1.5741,False,
672ba9e5dbe3b9649ad3864d,1.0,test,3.0,1.0,BLUE,False,SS3_D1,5.0,1.0,1.733,False,
672ba9e5dbe3b9649ad3864d,1.0,test,5.0,1.0,BLUE,False,SS5_D1,6.0,0.0,2.2897,False,
672ba9e5dbe3b9649ad3864d,1.0,test,3.0,1.0,BLUE,True,SS3_D1,5.0,0.0,1.3955,False,
672ba9e5dbe3b9649ad3864d,1.0,test,3.0,3.0,RED,True,SS3_D3,6.0,1.0,1.4197,False,
672ba9e5dbe3b9649ad3864d,1.0,test,3.0,3.0,BLUE,True,SS3_D3,6.0,1.0,1.1524,False,
672ba9e5dbe3b9649ad3864d,1.0,test,3.0,1.0,RED,False,SS3_D1,5.0,1.0,1.6775,False,
672ba9e5dbe3b9649ad3864d,1.0,test,3.0,3.0,RED,False,SS3_D3,5.0,1.0,1.6707,False,
672ba9e5dbe3b9649ad3864d,1.0,test,5.0,1.0,RED,False,SS5_D1,5.0,1.0,1.7655,False,
672ba9e5dbe3b9649ad3864d,1.0,test,5.0,3.0,RED,False,SS5_D3,5.0,1.0,1.7761,False,
672ba9e5dbe3b9649ad3864d,1.0,test,5.0,3.0,BLUE,False,SS5_D3,5.0,1.0,1.304,False,
672ba9e5dbe3b9649ad3864d,1.0,test,5.0,1.0,BLUE,True,SS5_D1,6.0,1.0,1.2571,False,
672ba9e5dbe3b9649ad3864d,1.0,test,5.0,1.0,RED,True,SS5_D1,6.0,1.0,1.3502,False,
672ba9e5dbe3b9649ad3864d,1.0,test,3.0,3.0,BLUE,False,SS3_D3,5.0,1.0,1.0853,False,
672ba9e5dbe3b9649ad3864d,1.0,test,5.0,3.0,BLUE,True,SS5_D3,5.0,0.0,1.3425,False,
672ba9e5dbe3b9649ad3864d,1.0,test,5.0,1.0,BLUE,False,SS5_D1,6.0,0.0,1.3052,False,
672ba9e5dbe3b9649ad3864d,1.0,test,3.0,1.0,BLUE,False,SS3_D1,5.0,1.0,1.8977,False,
672ba9e5dbe3b9649ad3864d,1.0,test,3.0,1.0,BLUE,True,SS3_D1,6.0,1.0,1.2033,False,
672ba9e5dbe3b9649ad3864d,1.0,test,5.0,3.0,RED,True,SS5_D3,6.0,1.0,0.9652,False,
672ba9e5dbe3b9649ad3864d,1.0,test,3.0,1.0,RED,True,SS3_D1,6.0,1.0,2.305,False,
672ba9e5dbe3b9649ad3864d,1.0,test,3.0,3.0,RED,True,SS3_D3,6.0,1.0,3.7688,True,RT outlier in SS3_D3
672ba9e5dbe3b9649ad3864d,1.0,test,3.0,1.0,RED,True,SS3_D1,6.0,1.0,1.9518,False,
672ba9e5dbe3b9649ad3864d,1.0,test,5.0,1.0,RED,False,SS5_D1,5.0,1.0,2.9789,False,
672ba9e5dbe3b9649ad3864d,1.0,test,3.0,1.0,BLUE,False,SS3_D1,5.0,1.0,1.8338,False,
672ba9e5dbe3b9649ad3864d,1.0,test,3.0,3.0,RED,True,SS3_D3,6.0,1.0,1.7704,False,
672ba9e5dbe3b9649ad3864d,1.0,test,5.0,3.0,BLUE,False,SS5_D3,5.0,1.0,2.3034,False,
672ba9e5dbe3b9649ad3864d,1.0,test,5.0,1.0,BLUE,False,SS5_D1,5.0,1.0,1.4991,False,
672ba9e5dbe3b9649ad3864d,1.0,test,5.0,3.0,BLUE,True,SS5_D3,6.0,1.0,2.8704,True,RT outlier in SS5_D3
672ba9e5dbe3b9649ad3864d,1.0,test,3.0,1.0,BLUE,True,SS3_D1,6.0,1.0,1.3847,False,
672ba9e5dbe3b9649ad3864d,1.0,test,5.0,3.0,RED,False,SS5_D3,6.0,0.0,2.052,False,
672ba9e5dbe3b9649ad3864d,1.0,test,3.0,3.0,RED,False,SS3_D3,5.0,1.0,1.8057,False,
672ba9e5dbe3b9649ad3864d,1.0,test,3.0,3.0,BLUE,True,SS3_D3,5.0,0.0,2.2192,False,
672ba9e5dbe3b9649ad3864d,1.0,test,5.0,1.0,RED,True,SS5_D1,6.0,1.0,2.0007,False,
672ba9e5dbe3b9649ad3864d,1.0,test,5.0,3.0,RED,True,SS5_D3,5.0,0.0,1.9445,False,
672ba9e5dbe3b9649ad3864d,1.0,test,5.0,1.0,BLUE,True,SS5_D1,5.0,0.0,1.2783,False,
672ba9e5dbe3b9649ad3864d,1.0,test,3.0,1.0,RED,False,SS3_D1,5.0,1.0,1.4278,False,
672ba9e5dbe3b9649ad3864d,1.0,test,3.0,3.0,BLUE,False,SS3_D3,5.0,1.0,1.0027,False,
672ba9e5dbe3b9649ad3864d,1.0,test,3.0,3.0,BLUE,True,SS3_D3,6.0,1.0,1.4338,False,
672ba9e5dbe3b9649ad3864d,1.0,test,3.0,3.0,RED,False,SS3_D3,5.0,1.0,1.101,False,
672ba9e5dbe3b9649ad3864d,1.0,test,3.0,1.0,RED,False,SS3_D1,5.0,1.0,1.1833,False,
672ba9e5dbe3b9649ad3864d,1.0,test,5.0,3.0,RED,False,SS5_D3,5.0,1.0,1.1231,False,
672ba9e5dbe3b9649ad3864d,1.0,test,5.0,1.0,BLUE,True,SS5_D1,6.0,1.0,2.0348,False,
672ba9e5dbe3b9649ad3864d,1.0,test,3.0,1.0,BLUE,True,SS3_D1,6.0,1.0,1.9687,False,
672ba9e5dbe3b9649ad3864d,1.0,test,5.0,3.0,BLUE,False,SS5_D3,5.0,1.0,1.5787,False,
672ba9e5dbe3b9649ad3864d,1.0,test,5.0,3.0,BLUE,True,SS5_D3,6.0,1.0,1.3174,False,
672ba9e5dbe3b9649ad3864d,1.0,test,3.0,1.0,BLUE,False,SS3_D1,5.0,1.0,1.4834,False,
672ba9e5dbe3b9649ad3864d,1.0,test,5.0,1.0,RED,True,SS5_D1,5.0,0.0,3.8005,True,RT outlier in SS5_D1
672ba9e5dbe3b9649ad3864d,1.0,test,3.0,1.0,RED,True,SS3_D1,5.0,0.0,1.1172,False,
672ba9e5dbe3b9649ad3864d,1.0,test,5.0,3.0,RED,True,SS5_D3,6.0,1.0,2.1991,False,
672ba9e5dbe3b9649ad3864d,1.0,test,3.0,3.0,BLUE,False,SS3_D3,5.0,1.0,1.2188,False,
672ba9e5dbe3b9649ad3864d,1.0,test,5.0,1.0,RED,False,SS5_D1,5.0,1.0,1.137,False,
672ba9e5dbe3b9649ad3864d,1.0,test,3.0,3.0,RED,True,SS3_D3,6.0,1.0,1.4505,False,
672ba9e5dbe3b9649ad3864d,1.0,test,5.0,1.0,BLUE,False,SS5_D1,5.0,1.0,1.2017,False,
64012a2623351894f2917605,1.0,practice,5.0,1.0,RED,True,SS5_D1,5.0,0.0,2.333,False,
64012a2623351894f2917605,1.0,practice,5.0,3.0,BLUE,True,SS5_D3,6.0,1.0,1.154,False,
64012a2623351894f2917605,1.0,practice,3.0,3.0,RED,False,SS3_D3,5.0,1.0,0.787,False,
64012a2623351894f2917605,1.0,practice,3.0,3.0,BLUE,True,SS3_D3,5.0,0.0,1.026,False,
64012a2623351894f2917605,1.0,practice,3.0,3.0,BLUE,False,SS3_D3,6.0,0.0,0.826,False,
64012a2623351894f2917605,1.0,practice,3.0,3.0,RED,True,SS3_D3,6.0,1.0,0.912,False,
64012a2623351894f2917605,1.0,practice,3.0,1.0,BLUE,False,SS3_D1,6.0,0.0,0.754,False,
64012a2623351894f2917605,1.0,practice,5.0,1.0,RED,False,SS5_D1,5.0,1.0,0.734,False,
64012a2623351894f2917605,1.0,practice,5.0,1.0,BLUE,False,SS5_D1,5.0,1.0,0.986,False,
64012a2623351894f2917605,1.0,practice,3.0,1.0,RED,False,SS3_D1,6.0,0.0,0.828,False,
64012a2623351894f2917605,1.0,practice,5.0,1.0,BLUE,True,SS5_D1,5.0,0.0,0.648,False,
64012a2623351894f2917605,1.0,practice,3.0,1.0,RED,True,SS3_D1,6.0,1.0,0.762,False,
64012a2623351894f2917605,1.0,practice,5.0,3.0,RED,False,SS5_D3,6.0,0.0,0.695,False,
64012a2623351894f2917605,1.0,practice,5.0,3.0,RED,True,SS5_D3,5.0,0.0,0.615,False,
64012a2623351894f2917605,1.0,practice,5.0,3.0,BLUE,False,SS5_D3,6.0,0.0,0.706,False,
64012a2623351894f2917605,1.0,practice,3.0,1.0,BLUE,True,SS3_D1,6.0,1.0,0.801,False,
64012a2623351894f2917605,1.0,practice,5.0,3.0,RED,False,SS5_D3,5.0,1.0,0.932,False,
64012a2623351894f2917605,1.0,practice,3.0,1.0,RED,False,SS3_D1,5.0,1.0,0.996,False,
64012a2623351894f2917605,1.0,practice,3.0,3.0,BLUE,True,SS3_D3,6.0,1.0,0.667,False,
64012a2623351894f2917605,1.0,practice,3.0,3.0,BLUE,False,SS3_D3,5.0,1.0,0.669,False,
64012a2623351894f2917605,1.0,practice,3.0,3.0,RED,False,SS3_D3,5.0,1.0,1.093,False,
64012a2623351894f2917605,1.0,practice,3.0,1.0,BLUE,False,SS3_D1,5.0,1.0,0.707,False,
64012a2623351894f2917605,1.0,practice,5.0,3.0,BLUE,True,SS5_D3,5.0,0.0,0.773,False,
64012a2623351894f2917605,1.0,practice,5.0,1.0,BLUE,False,SS5_D1,5.0,1.0,0.698,False,
64012a2623351894f2917605,1.0,practice,3.0,1.0,RED,True,SS3_D1,6.0,1.0,0.857,False,
64012a2623351894f2917605,1.0,practice,3.0,1.0,BLUE,True,SS3_D1,5.0,0.0,0.761,False,
64012a2623351894f2917605,1.0,practice,5.0,1.0,RED,False,SS5_D1,6.0,0.0,0.868,False,
64012a2623351894f2917605,1.0,practice,3.0,3.0,RED,True,SS3_D3,6.0,1.0,1.002,False,
64012a2623351894f2917605,1.0,practice,5.0,3.0,RED,True,SS5_D3,5.0,0.0,0.68,False,
64012a2623351894f2917605,1.0,practice,5.0,1.0,BLUE,True,SS5_D1,5.0,0.0,0.774,False,
64012a2623351894f2917605,1.0,practice,5.0,1.0,RED,True,SS5_D1,6.0,1.0,1.099,False,
64012a2623351894f2917605,1.0,practice,5.0,3.0,BLUE,False,SS5_D3,6.0,0.0,0.928,False,
64012a2623351894f2917605,1.0,test,3.0,3.0,BLUE,False,SS3_D3,5.0,1.0,1.842,True,RT outlier in SS3_D3
64012a2623351894f2917605,1.0,test,5.0,1.0,RED,True,SS5_D1,6.0,1.0,0.855,False,
64012a2623351894f2917605,1.0,test,3.0,1.0,RED,True,SS3_D1,6.0,1.0,1.018,False,
64012a2623351894f2917605,1.0,test,5.0,1.0,BLUE,True,SS5_D1,6.0,1.0,0.938,False,
64012a2623351894f2917605,1.0,test,5.0,3.0,RED,False,SS5_D3,6.0,0.0,1.147,False,
64012a2623351894f2917605,1.0,test,3.0,3.0,BLUE,True,SS3_D3,5.0,0.0,1.008,False,
64012a2623351894f2917605,1.0,test,5.0,3.0,BLUE,True,SS5_D3,5.0,0.0,0.851,False,
64012a2623351894f2917605,1.0,test,5.0,1.0,BLUE,False,SS5_D1,6.0,0.0,0.962,False,
64012a2623351894f2917605,1.0,test,3.0,3.0,RED,True,SS3_D3,6.0,1.0,0.938,False,
64012a2623351894f2917605,1.0,test,5.0,1.0,RED,False,SS5_D1,6.0,0.0,0.939,False,
64012a2623351894f2917605,1.0,test,3.0,3.0,RED,False,SS3_D3,5.0,1.0,0.879,False,
64012a2623351894f2917605,1.0,test,5.0,3.0,BLUE,False,SS5_D3,6.0,0.0,0.934,False,
64012a2623351894f2917605,1.0,test,5.0,3.0,RED,True,SS5_D3,6.0,1.0,0.956,False,
64012a2623351894f2917605,1.0,test,3.0,1.0,BLUE,False,SS3_D1,5.0,1.0,0.907,False,
64012a2623351894f2917605,1.0,test,3.0,1.0,BLUE,True,SS3_D1,6.0,1.0,1.48,False,
64012a2623351894f2917605,1.0,test,3.0,1.0,RED,False,SS3_D1,5.0,1.0,1.164,False,
64012a2623351894f2917605,1.0,test,5.0,1.0,RED,True,SS5_D1,6.0,1.0,0.884,False,
64012a2623351894f2917605,1.0,test,5.0,1.0,RED,False,SS5_D1,5.0,1.0,1.086,False,
64012a2623351894f2917605,1.0,test,3.0,3.0,RED,False,SS3_D3,5.0,1.0,1.023,False,
64012a2623351894f2917605,1.0,test,5.0,3.0,RED,False,SS5_D3,5.0,1.0,0.961,False,
64012a2623351894f2917605,1.0,test,3.0,1.0,RED,False,SS3_D1,5.0,1.0,0.969,False,
64012a2623351894f2917605,1.0,test,5.0,1.0,BLUE,True,SS5_D1,6.0,1.0,1.108,False,
64012a2623351894f2917605,1.0,test,5.0,3.0,BLUE,False,SS5_D3,6.0,0.0,0.991,False,
64012a2623351894f2917605,1.0,test,5.0,1.0,BLUE,False,SS5_D1,5.0,1.0,0.9,False,
64012a2623351894f2917605,1.0,test,5.0,3.0,BLUE,True,SS5_D3,6.0,1.0,0.863,False,
64012a2623351894f2917605,1.0,test,3.0,3.0,BLUE,False,SS3_D3,6.0,0.0,1.148,False,
64012a2623351894f2917605,1.0,test,3.0,1.0,BLUE,True,SS3_D1,5.0,0.0,0.754,False,
64012a2623351894f2917605,1.0,test,3.0,1.0,BLUE,False,SS3_D1,5.0,1.0,0.877,False,
64012a2623351894f2917605,1.0,test,3.0,3.0,BLUE,True,SS3_D3,6.0,1.0,0.773,False,
64012a2623351894f2917605,1.0,test,3.0,3.0,RED,True,SS3_D3,6.0,1.0,1.04,False,
64012a2623351894f2917605,1.0,test,3.0,1.0,RED,True,SS3_D1,6.0,1.0,0.895,False,
64012a2623351894f2917605,1.0,test,5.0,3.0,RED,True,SS5_D3,6.0,1.0,0.98,False,
64012a2623351894f2917605,1.0,test,3.0,1.0,BLUE,False,SS3_D1,5.0,1.0,0.763,False,
64012a2623351894f2917605,1.0,test,5.0,3.0,BLUE,True,SS5_D3,6.0,1.0,0.724,False,
64012a2623351894f2917605,1.0,test,5.0,1.0,RED,False,SS5_D1,5.0,1.0,0.923,False,
64012a2623351894f2917605,1.0,test,5.0,3.0,RED,False,SS5_D3,6.0,0.0,1.128,False,
64012a2623351894f2917605,1.0,test,3.0,3.0,RED,False,SS3_D3,5.0,1.0,0.751,False,
64012a2623351894f2917605,1.0,test,3.0,1.0,RED,False,SS3_D1,5.0,1.0,0.854,False,
64012a2623351894f2917605,1.0,test,5.0,3.0,BLUE,False,SS5_D3,6.0,0.0,0.841,False,
64012a2623351894f2917605,1.0,test,3.0,3.0,BLUE,False,SS3_D3,6.0,0.0,0.962,False,
64012a2623351894f2917605,1.0,test,5.0,3.0,RED,True,SS5_D3,6.0,1.0,0.797,False,
64012a2623351894f2917605,1.0,test,5.0,1.0,RED,True,SS5_D1,6.0,1.0,0.841,False,
64012a2623351894f2917605,1.0,test,3.0,1.0,RED,True,SS3_D1,6.0,1.0,0.725,False,
64012a2623351894f2917605,1.0,test,3.0,1.0,BLUE,True,SS3_D1,6.0,1.0,0.803,False,
64012a2623351894f2917605,1.0,test,5.0,1.0,BLUE,False,SS5_D1,5.0,1.0,0.832,False,
64012a2623351894f2917605,1.0,test,3.0,3.0,BLUE,True,SS3_D3,6.0,1.0,0.643,False,
64012a2623351894f2917605,1.0,test,5.0,1.0,BLUE,True,SS5_D1,6.0,1.0,1.017,False,
64012a2623351894f2917605,1.0,test,3.0,3.0,RED,True,SS3_D3,6.0,1.0,0.855,False,
64012a2623351894f2917605,1.0,test,3.0,1.0,BLUE,False,SS3_D1,5.0,1.0,0.79,False,
64012a2623351894f2917605,1.0,test,5.0,3.0,RED,True,SS5_D3,6.0,1.0,0.872,False,
64012a2623351894f2917605,1.0,test,3.0,1.0,RED,True,SS3_D1,6.0,1.0,0.806,False,
64012a2623351894f2917605,1.0,test,3.0,3.0,BLUE,False,SS3_D3,5.0,1.0,1.135,False,
64012a2623351894f2917605,1.0,test,5.0,1.0,BLUE,True,SS5_D1,6.0,1.0,0.897,False,
64012a2623351894f2917605,1.0,test,3.0,3.0,BLUE,True,SS3_D3,6.0,1.0,1.123,False,
64012a2623351894f2917605,1.0,test,3.0,1.0,RED,False,SS3_D1,5.0,1.0,0.873,False,
64012a2623351894f2917605,1.0,test,5.0,1.0,BLUE,False,SS5_D1,5.0,1.0,0.842,False,
64012a2623351894f2917605,1.0,test,3.0,3.0,RED,True,SS3_D3,6.0,1.0,0.791,False,
64012a2623351894f2917605,1.0,test,3.0,1.0,BLUE,True,SS3_D1,5.0,0.0,0.935,False,
64012a2623351894f2917605,1.0,test,3.0,3.0,RED,False,SS3_D3,5.0,1.0,0.874,False,
64012a2623351894f2917605,1.0,test,5.0,3.0,BLUE,False,SS5_D3,5.0,1.0,0.746,False,
64012a2623351894f2917605,1.0,test,5.0,3.0,RED,False,SS5_D3,5.0,1.0,1.455,True,RT outlier in SS5_D3
64012a2623351894f2917605,1.0,test,5.0,3.0,BLUE,True,SS5_D3,6.0,1.0,0.802,False,
64012a2623351894f2917605,1.0,test,5.0,1.0,RED,True,SS5_D1,6.0,1.0,1.133,False,
64012a2623351894f2917605,1.0,test,5.0,1.0,RED,False,SS5_D1,5.0,1.0,0.734,False,
64012a2623351894f2917605,1.0,test,5.0,3.0,RED,True,SS5_D3,6.0,1.0,1.0,False,
64012a2623351894f2917605,1.0,test,5.0,1.0,RED,False,SS5_D1,6.0,0.0,0.96,False,
64012a2623351894f2917605,1.0,test,5.0,1.0,BLUE,False,SS5_D1,5.0,1.0,0.857,False,
64012a2623351894f2917605,1.0,test,3.0,3.0,BLUE,True,SS3_D3,5.0,0.0,1.207,False,
64012a2623351894f2917605,1.0,test,3.0,3.0,RED,True,SS3_D3,6.0,1.0,0.895,False,
64012a2623351894f2917605,1.0,test,3.0,1.0,BLUE,True,SS3_D1,6.0,1.0,1.349,False,
64012a2623351894f2917605,1.0,test,5.0,1.0,RED,True,SS5_D1,6.0,1.0,1.97,True,RT outlier in SS5_D1
64012a2623351894f2917605,1.0,test,3.0,1.0,RED,True,SS3_D1,6.0,1.0,0.894,False,
64012a2623351894f2917605,1.0,test,5.0,3.0,RED,False,SS5_D3,5.0,1.0,1.246,False,
64012a2623351894f2917605,1.0,test,5.0,1.0,BLUE,True,SS5_D1,6.0,1.0,0.881,False,
64012a2623351894f2917605,1.0,test,3.0,1.0,BLUE,False,SS3_D1,5.0,1.0,1.56,False,
64012a2623351894f2917605,1.0,test,3.0,3.0,BLUE,False,SS3_D3,5.0,1.0,0.714,False,
64012a2623351894f2917605,1.0,test,5.0,3.0,BLUE,True,SS5_D3,6.0,1.0,1.013,False,
64012a2623351894f2917605,1.0,test,5.0,3.0,BLUE,False,SS5_D3,5.0,1.0,1.058,False,
64012a2623351894f2917605,1.0,test,3.0,3.0,RED,False,SS3_D3,5.0,1.0,1.467,False,
64012a2623351894f2917605,1.0,test,3.0,1.0,RED,False,SS3_D1,5.0,1.0,1.027,False,
64012a2623351894f2917605,1.0,test,3.0,3.0,BLUE,False,SS3_D3,5.0,1.0,0.789,False,
64012a2623351894f2917605,1.0,test,3.0,1.0,BLUE,False,SS3_D1,5.0,1.0,0.818,False,
64012a2623351894f2917605,1.0,test,5.0,3.0,BLUE,False,SS5_D3,6.0,0.0,1.136,False,
64012a2623351894f2917605,1.0,test,3.0,3.0,RED,True,SS3_D3,5.0,0.0,1.018,False,
64012a2623351894f2917605,1.0,test,3.0,3.0,BLUE,True,SS3_D3,6.0,1.0,0.802,False,
64012a2623351894f2917605,1.0,test,5.0,1.0,RED,False,SS5_D1,5.0,1.0,0.934,False,
64012a2623351894f2917605,1.0,test,5.0,1.0,BLUE,True,SS5_D1,6.0,1.0,0.934,False,
64012a2623351894f2917605,1.0,test,5.0,1.0,BLUE,False,SS5_D1,5.0,1.0,0.736,False,
64012a2623351894f2917605,1.0,test,5.0,3.0,RED,True,SS5_D3,5.0,0.0,1.006,False,
64012a2623351894f2917605,1.0,test,5.0,3.0,BLUE,True,SS5_D3,5.0,0.0,0.799,False,
64012a2623351894f2917605,1.0,test,3.0,3.0,RED,False,SS3_D3,5.0,1.0,0.627,False,
64012a2623351894f2917605,1.0,test,3.0,1.0,BLUE,True,SS3_D1,6.0,1.0,0.88,False,
64012a2623351894f2917605,1.0,test,5.0,3.0,RED,False,SS5_D3,5.0,1.0,0.974,False,
64012a2623351894f2917605,1.0,test,5.0,1.0,RED,True,SS5_D1,6.0,1.0,0.869,False,
64012a2623351894f2917605,1.0,test,3.0,1.0,RED,True,SS3_D1,6.0,1.0,0.693,False,
64012a2623351894f2917605,1.0,test,3.0,1.0,RED,False,SS3_D1,5.0,1.0,1.67,False,
64012a2623351894f2917605,1.0,test,3.0,1.0,RED,False,SS3_D1,5.0,1.0,0.803,False,
64012a2623351894f2917605,1.0,test,5.0,3.0,BLUE,False,SS5_D3,5.0,1.0,0.637,False,
64012a2623351894f2917605,1.0,test,3.0,1.0,BLUE,True,SS3_D1,6.0,1.0,1.753,True,RT outlier in SS3_D1
64012a2623351894f2917605,1.0,test,5.0,3.0,RED,False,SS5_D3,5.0,1.0,0.838,False,
64012a2623351894f2917605,1.0,test,5.0,3.0,RED,True,SS5_D3,5.0,0.0,0.903,False,
64012a2623351894f2917605,1.0,test,5.0,1.0,BLUE,True,SS5_D1,5.0,0.0,1.188,False,
64012a2623351894f2917605,1.0,test,5.0,1.0,RED,False,SS5_D1,5.0,1.0,0.667,False,
64012a2623351894f2917605,1.0,test,3.0,1.0,BLUE,False,SS3_D1,5.0,1.0,0.606,False,
64012a2623351894f2917605,1.0,test,3.0,1.0,RED,True,SS3_D1,6.0,1.0,0.712,False,
64012a2623351894f2917605,1.0,test,3.0,3.0,RED,True,SS3_D3,5.0,0.0,1.458,False,
64012a2623351894f2917605,1.0,test,5.0,3.0,BLUE,True,SS5_D3,6.0,1.0,0.992,False,
64012a2623351894f2917605,1.0,test,5.0,1.0,RED,True,SS5_D1,6.0,1.0,0.816,False,
64012a2623351894f2917605,1.0,test,5.0,1.0,BLUE,False,SS5_D1,5.0,1.0,0.871,False,
64012a2623351894f2917605,1.0,test,3.0,3.0,BLUE,True,SS3_D3,6.0,1.0,0.78,False,
64012a2623351894f2917605,1.0,test,3.0,3.0,BLUE,False,SS3_D3,6.0,0.0,1.003,False,
64012a2623351894f2917605,1.0,test,3.0,3.0,RED,False,SS3_D3,5.0,1.0,1.218,False,
5e76d2652d882b2481d65066,2.0,practice,5.0,1.0,RED,True,SS5_D1,5.0,0.0,2.5342,False,
5e76d2652d882b2481d65066,2.0,practice,3.0,3.0,BLUE,False,SS3_D3,5.0,1.0,1.1506,False,
5e76d2652d882b2481d65066,2.0,practice,3.0,3.0,RED,True,SS3_D3,6.0,1.0,1.6167,False,
5e76d2652d882b2481d65066,2.0,practice,3.0,1.0,RED,True,SS3_D1,6.0,1.0,1.5172,False,
5e76d2652d882b2481d65066,2.0,practice,3.0,1.0,RED,False,SS3_D1,5.0,1.0,1.9661,False,
5e76d2652d882b2481d65066,2.0,practice,5.0,3.0,RED,False,SS5_D3,5.0,1.0,1.9732,False,
5e76d2652d882b2481d65066,2.0,practice,5.0,3.0,RED,True,SS5_D3,5.0,0.0,1.3393,False,
5e76d2652d882b2481d65066,2.0,practice,5.0,3.0,BLUE,True,SS5_D3,6.0,1.0,1.3668,False,
5e76d2652d882b2481d65066,2.0,practice,3.0,1.0,BLUE,True,SS3_D1,6.0,1.0,1.1787,False,
5e76d2652d882b2481d65066,2.0,practice,3.0,1.0,BLUE,False,SS3_D1,5.0,1.0,1.8274,False,
5e76d2652d882b2481d65066,2.0,practice,3.0,3.0,BLUE,True,SS3_D3,5.0,0.0,1.1843,False,
5e76d2652d882b2481d65066,2.0,practice,5.0,3.0,BLUE,False,SS5_D3,5.0,1.0,1.034,False,
5e76d2652d882b2481d65066,2.0,practice,5.0,1.0,BLUE,False,SS5_D1,5.0,1.0,1.4827,False,
5e76d2652d882b2481d65066,2.0,practice,5.0,1.0,RED,False,SS5_D1,6.0,0.0,2.503,False,
5e76d2652d882b2481d65066,2.0,practice,3.0,3.0,RED,False,SS3_D3,5.0,1.0,2.1166,False,
5e76d2652d882b2481d65066,2.0,practice,5.0,1.0,BLUE,True,SS5_D1,6.0,1.0,1.254,False,
5e76d2652d882b2481d65066,2.0,practice,3.0,1.0,BLUE,False,SS3_D1,5.0,1.0,1.2428,False,
5e76d2652d882b2481d65066,2.0,practice,5.0,1.0,BLUE,False,SS5_D1,6.0,0.0,1.3513,False,
5e76d2652d882b2481d65066,2.0,practice,3.0,3.0,BLUE,True,SS3_D3,6.0,1.0,1.2759,False,
5e76d2652d882b2481d65066,2.0,practice,5.0,1.0,RED,False,SS5_D1,5.0,1.0,1.7872,False,
5e76d2652d882b2481d65066,2.0,practice,5.0,3.0,BLUE,True,SS5_D3,6.0,1.0,1.2172,False,
5e76d2652d882b2481d65066,2.0,practice,5.0,3.0,RED,True,SS5_D3,6.0,1.0,1.765,False,
5e76d2652d882b2481d65066,2.0,practice,5.0,1.0,BLUE,True,SS5_D1,6.0,1.0,1.7139,False,
5e76d2652d882b2481d65066,2.0,practice,5.0,3.0,RED,False,SS5_D3,5.0,1.0,1.7967,False,
5e76d2652d882b2481d65066,2.0,practice,5.0,3.0,BLUE,False,SS5_D3,5.0,1.0,1.9109,False,
5e76d2652d882b2481d65066,2.0,practice,3.0,3.0,RED,True,SS3_D3,6.0,1.0,1.6918,False,
5e76d2652d882b2481d65066,2.0,practice,3.0,1.0,RED,False,SS3_D1,5.0,1.0,1.234,False,
5e76d2652d882b2481d65066,2.0,practice,3.0,1.0,BLUE,True,SS3_D1,6.0,1.0,1.0272,False,
5e76d2652d882b2481d65066,2.0,practice,5.0,1.0,RED,True,SS5_D1,6.0,1.0,2.7144,False,
5e76d2652d882b2481d65066,2.0,practice,3.0,3.0,RED,False,SS3_D3,5.0,1.0,1.4216,False,
5e76d2652d882b2481d65066,2.0,practice,3.0,3.0,BLUE,False,SS3_D3,5.0,1.0,0.9087,False,
5e76d2652d882b2481d65066,2.0,practice,3.0,1.0,RED,True,SS3_D1,6.0,1.0,1.542,False,
5e76d2652d882b2481d65066,2.0,test,5.0,1.0,BLUE,True,SS5_D1,6.0,1.0,1.8247,False,
5e76d2652d882b2481d65066,2.0,test,5.0,3.0,RED,False,SS5_D3,5.0,1.0,1.3259,False,
5e76d2652d882b2481d65066,2.0,test,5.0,3.0,BLUE,True,SS5_D3,6.0,1.0,1.2836,False,
5e76d2652d882b2481d65066,2.0,test,3.0,3.0,RED,True,SS3_D3,6.0,1.0,1.6173,False,
5e76d2652d882b2481d65066,2.0,test,3.0,3.0,BLUE,False,SS3_D3,5.0,1.0,1.3596,False,
5e76d2652d882b2481d65066,2.0,test,3.0,3.0,BLUE,True,SS3_D3,6.0,1.0,1.5169,False,
5e76d2652d882b2481d65066,2.0,test,3.0,1.0,BLUE,False,SS3_D1,5.0,1.0,1.3293,False,
5e76d2652d882b2481d65066,2.0,test,3.0,1.0,RED,False,SS3_D1,6.0,0.0,1.6341,False,
5e76d2652d882b2481d65066,2.0,test,3.0,1.0,BLUE,True,SS3_D1,6.0,1.0,1.3672,False,
5e76d2652d882b2481d65066,2.0,test,5.0,1.0,RED,True,SS5_D1,6.0,1.0,1.2712,False,
5e76d2652d882b2481d65066,2.0,test,3.0,1.0,RED,True,SS3_D1,6.0,1.0,2.6549,False,
5e76d2652d882b2481d65066,2.0,test,3.0,3.0,RED,False,SS3_D3,5.0,1.0,2.066,False,
5e76d2652d882b2481d65066,2.0,test,5.0,3.0,RED,True,SS5_D3,5.0,0.0,2.2661,False,
5e76d2652d882b2481d65066,2.0,test,5.0,3.0,BLUE,False,SS5_D3,6.0,0.0,1.7271,False,
5e76d2652d882b2481d65066,2.0,test,5.0,1.0,RED,False,SS5_D1,5.0,1.0,1.4956,False,
5e76d2652d882b2481d65066,2.0,test,5.0,1.0,BLUE,False,SS5_D1,5.0,1.0,0.8874,False,
5e76d2652d882b2481d65066,2.0,test,5.0,1.0,RED,False,SS5_D1,5.0,1.0,1.6833,False,
5e76d2652d882b2481d65066,2.0,test,5.0,3.0,BLUE,True,SS5_D3,6.0,1.0,1.3843,False,
5e76d2652d882b2481d65066,2.0,test,3.0,1.0,RED,False,SS3_D1,5.0,1.0,1.5272,False,
5e76d2652d882b2481d65066,2.0,test,3.0,1.0,BLUE,True,SS3_D1,6.0,1.0,2.183,False,
5e76d2652d882b2481d65066,2.0,test,5.0,3.0,BLUE,False,SS5_D3,5.0,1.0,1.5875,False,
5e76d2652d882b2481d65066,2.0,test,5.0,3.0,RED,True,SS5_D3,6.0,1.0,1.3857,False,
5e76d2652d882b2481d65066,2.0,test,3.0,3.0,RED,False,SS3_D3,5.0,1.0,1.5503,False,
5e76d2652d882b2481d65066,2.0,test,5.0,1.0,BLUE,False,SS5_D1,5.0,1.0,1.6848,False,
5e76d2652d882b2481d65066,2.0,test,3.0,3.0,RED,True,SS3_D3,6.0,1.0,1.8838,False,
5e76d2652d882b2481d65066,2.0,test,5.0,1.0,BLUE,True,SS5_D1,6.0,1.0,2.4829,False,
5e76d2652d882b2481d65066,2.0,test,5.0,1.0,RED,True,SS5_D1,6.0,1.0,1.8536,False,
5e76d2652d882b2481d65066,2.0,test,3.0,3.0,BLUE,True,SS3_D3,5.0,0.0,2.3748,False,
5e76d2652d882b2481d65066,2.0,test,5.0,3.0,RED,False,SS5_D3,6.0,0.0,1.9837,False,
5e76d2652d882b2481d65066,2.0,test,3.0,3.0,BLUE,False,SS3_D3,5.0,1.0,1.9752,False,
5e76d2652d882b2481d65066,2.0,test,3.0,1.0,RED,True,SS3_D1,6.0,1.0,1.2773,False,
5e76d2652d882b2481d65066,2.0,test,3.0,1.0,BLUE,False,SS3_D1,6.0,0.0,4.5304,False,
5e76d2652d882b2481d65066,2.0,test,3.0,3.0,BLUE,True,SS3_D3,6.0,1.0,1.3093,False,
5e76d2652d882b2481d65066,2.0,test,5.0,3.0,BLUE,False,SS5_D3,5.0,1.0,1.7594,False,
5e76d2652d882b2481d65066,2.0,test,5.0,1.0,BLUE,True,SS5_D1,6.0,1.0,1.6938,False,
5e76d2652d882b2481d65066,2.0,test,3.0,3.0,RED,False,SS3_D3,5.0,1.0,2.0596,False,
5e76d2652d882b2481d65066,2.0,test,5.0,1.0,BLUE,False,SS5_D1,5.0,1.0,2.0248,False,
5e76d2652d882b2481d65066,2.0,test,5.0,3.0,BLUE,True,SS5_D3,5.0,0.0,1.4505,False,
5e76d2652d882b2481d65066,2.0,test,3.0,1.0,BLUE,False,SS3_D1,5.0,1.0,1.2337,False,
5e76d2652d882b2481d65066,2.0,test,3.0,1.0,RED,False,SS3_D1,5.0,1.0,0.9546,False,
5e76d2652d882b2481d65066,2.0,test,5.0,3.0,RED,True,SS5_D3,6.0,1.0,4.1805,True,RT outlier in SS5_D3
5e76d2652d882b2481d65066,2.0,test,5.0,1.0,RED,False,SS5_D1,5.0,1.0,1.1009,False,
5e76d2652d882b2481d65066,2.0,test,3.0,3.0,RED,True,SS3_D3,6.0,1.0,1.4518,False,
5e76d2652d882b2481d65066,2.0,test,5.0,1.0,RED,True,SS5_D1,6.0,1.0,2.1116,False,
5e76d2652d882b2481d65066,2.0,test,3.0,3.0,BLUE,False,SS3_D3,6.0,0.0,2.3077,False,
5e76d2652d882b2481d65066,2.0,test,5.0,3.0,RED,False,SS5_D3,6.0,0.0,1.993,False,
5e76d2652d882b2481d65066,2.0,test,3.0,1.0,RED,True,SS3_D1,6.0,1.0,1.9378,False,
5e76d2652d882b2481d65066,2.0,test,3.0,1.0,BLUE,True,SS3_D1,6.0,1.0,2.6327,False,
5e76d2652d882b2481d65066,2.0,test,5.0,1.0,BLUE,False,SS5_D1,5.0,1.0,1.3507,False,
5e76d2652d882b2481d65066,2.0,test,3.0,3.0,RED,True,SS3_D3,6.0,1.0,1.4878,False,
5e76d2652d882b2481d65066,2.0,test,3.0,1.0,RED,False,SS3_D1,5.0,1.0,1.3096,False,
5e76d2652d882b2481d65066,2.0,test,5.0,3.0,RED,False,SS5_D3,6.0,0.0,2.4326,False,
5e76d2652d882b2481d65066,2.0,test,3.0,1.0,BLUE,False,SS3_D1,5.0,1.0,1.2249,False,
5e76d2652d882b2481d65066,2.0,test,5.0,1.0,RED,False,SS5_D1,5.0,1.0,1.3842,False,
5e76d2652d882b2481d65066,2.0,test,3.0,1.0,RED,True,SS3_D1,6.0,1.0,1.9655,False,
5e76d2652d882b2481d65066,2.0,test,3.0,1.0,BLUE,True,SS3_D1,6.0,1.0,9.4738,True,RT outlier in SS3_D1
5e76d2652d882b2481d65066,2.0,test,3.0,3.0,BLUE,True,SS3_D3,6.0,1.0,1.2507,False,
5e76d2652d882b2481d65066,2.0,test,5.0,1.0,RED,True,SS5_D1,6.0,1.0,1.7033,False,
5e76d2652d882b2481d65066,2.0,test,5.0,1.0,BLUE,True,SS5_D1,5.0,0.0,2.6651,False,
5e76d2652d882b2481d65066,2.0,test,3.0,3.0,RED,False,SS3_D3,5.0,1.0,1.4342,False,
5e76d2652d882b2481d65066,2.0,test,5.0,3.0,RED,True,SS5_D3,6.0,1.0,2.0922,False,
5e76d2652d882b2481d65066,2.0,test,5.0,3.0,BLUE,True,SS5_D3,6.0,1.0,1.5759,False,
5e76d2652d882b2481d65066,2.0,test,3.0,3.0,BLUE,False,SS3_D3,5.0,1.0,3.3737,True,RT outlier in SS3_D3
5e76d2652d882b2481d65066,2.0,test,5.0,3.0,BLUE,False,SS5_D3,5.0,1.0,1.1506,False,
5e76d2652d882b2481d65066,2.0,test,3.0,1.0,RED,True,SS3_D1,6.0,1.0,1.3416,False,
5e76d2652d882b2481d65066,2.0,test,5.0,3.0,BLUE,False,SS5_D3,5.0,1.0,1.6335,False,
5e76d2652d882b2481d65066,2.0,test,3.0,3.0,BLUE,True,SS3_D3,6.0,1.0,1.3839,False,
5e76d2652d882b2481d65066,2.0,test,3.0,3.0,BLUE,False,SS3_D3,6.0,0.0,1.4015,False,
5e76d2652d882b2481d65066,2.0,test,5.0,1.0,BLUE,True,SS5_D1,6.0,1.0,1.3206,False,
5e76d2652d882b2481d65066,2.0,test,3.0,1.0,BLUE,True,SS3_D1,6.0,1.0,1.1187,False,
5e76d2652d882b2481d65066,2.0,test,5.0,3.0,RED,False,SS5_D3,5.0,1.0,1.398,False,
5e76d2652d882b2481d65066,2.0,test,3.0,1.0,RED,False,SS3_D1,5.0,1.0,2.4378,False,
5e76d2652d882b2481d65066,2.0,test,5.0,3.0,RED,True,SS5_D3,5.0,0.0,3.0493,False,
5e76d2652d882b2481d65066,2.0,test,3.0,3.0,RED,True,SS3_D3,6.0,1.0,1.3011,False,
5e76d2652d882b2481d65066,2.0,test,5.0,1.0,RED,True,SS5_D1,5.0,0.0,3.232,False,
5e76d2652d882b2481d65066,2.0,test,5.0,3.0,BLUE,True,SS5_D3,6.0,1.0,1.7501,False,
5e76d2652d882b2481d65066,2.0,test,5.0,1.0,BLUE,False,SS5_D1,5.0,1.0,1.2928,False,
5e76d2652d882b2481d65066,2.0,test,5.0,1.0,RED,False,SS5_D1,5.0,1.0,4.5298,True,RT outlier in SS5_D1
5e76d2652d882b2481d65066,2.0,test,3.0,3.0,RED,False,SS3_D3,6.0,0.0,2.2993,False,
5e76d2652d882b2481d65066,2.0,test,3.0,1.0,BLUE,False,SS3_D1,5.0,1.0,1.4169,False,
5e76d2652d882b2481d65066,2.0,test,3.0,1.0,BLUE,True,SS3_D1,6.0,1.0,7.8656,True,RT outlier in SS3_D1
5e76d2652d882b2481d65066,2.0,test,5.0,3.0,BLUE,True,SS5_D3,6.0,1.0,2.9649,False,
5e76d2652d882b2481d65066,2.0,test,5.0,3.0,RED,True,SS5_D3,6.0,1.0,1.9664,False,
5e76d2652d882b2481d65066,2.0,test,5.0,3.0,RED,False,SS5_D3,5.0,1.0,2.366,False,
5e76d2652d882b2481d65066,2.0,test,3.0,3.0,BLUE,True,SS3_D3,6.0,1.0,1.4332,False,
5e76d2652d882b2481d65066,2.0,test,3.0,1.0,RED,False,SS3_D1,5.0,1.0,1.2929,False,
5e76d2652d882b2481d65066,2.0,test,5.0,1.0,RED,False,SS5_D1,5.0,1.0,1.1345,False,
5e76d2652d882b2481d65066,2.0,test,5.0,1.0,BLUE,False,SS5_D1,5.0,1.0,1.2011,False,
5e76d2652d882b2481d65066,2.0,test,3.0,3.0,RED,True,SS3_D3,6.0,1.0,1.1773,False,
5e76d2652d882b2481d65066,2.0,test,3.0,3.0,BLUE,False,SS3_D3,5.0,1.0,1.8339,False,
5e76d2652d882b2481d65066,2.0,test,3.0,3.0,RED,False,SS3_D3,6.0,0.0,2.0844,False,
5e76d2652d882b2481d65066,2.0,test,3.0,1.0,BLUE,False,SS3_D1,5.0,1.0,1.082,False,
5e76d2652d882b2481d65066,2.0,test,5.0,1.0,RED,True,SS5_D1,6.0,1.0,1.7338,False,
5e76d2652d882b2481d65066,2.0,test,5.0,3.0,BLUE,False,SS5_D3,6.0,0.0,1.4177,False,
5e76d2652d882b2481d65066,2.0,test,5.0,1.0,BLUE,True,SS5_D1,6.0,1.0,2.0003,False,
5e76d2652d882b2481d65066,2.0,test,3.0,1.0,RED,True,SS3_D1,5.0,0.0,2.0829,False,
5e76d2652d882b2481d65066,2.0,test,3.0,3.0,BLUE,False,SS3_D3,6.0,0.0,3.6486,True,RT outlier in SS3_D3
5e76d2652d882b2481d65066,2.0,test,3.0,1.0,BLUE,True,SS3_D1,6.0,1.0,1.5172,False,
5e76d2652d882b2481d65066,2.0,test,3.0,1.0,RED,True,SS3_D1,5.0,0.0,2.832,False,
5e76d2652d882b2481d65066,2.0,test,3.0,3.0,RED,False,SS3_D3,6.0,0.0,1.2234,False,
5e76d2652d882b2481d65066,2.0,test,3.0,3.0,BLUE,True,SS3_D3,6.0,1.0,1.7166,False,
5e76d2652d882b2481d65066,2.0,test,5.0,1.0,RED,True,SS5_D1,6.0,1.0,1.9836,False,
5e76d2652d882b2481d65066,2.0,test,3.0,3.0,RED,True,SS3_D3,6.0,1.0,0.7841,False,
5e76d2652d882b2481d65066,2.0,test,5.0,1.0,BLUE,True,SS5_D1,6.0,1.0,1.535,False,
5e76d2652d882b2481d65066,2.0,test,5.0,1.0,RED,False,SS5_D1,5.0,1.0,1.3173,False,
5e76d2652d882b2481d65066,2.0,test,5.0,1.0,BLUE,False,SS5_D1,6.0,0.0,1.4673,False,
5e76d2652d882b2481d65066,2.0,test,5.0,3.0,RED,False,SS5_D3,5.0,1.0,1.6332,False,
5e76d2652d882b2481d65066,2.0,test,3.0,1.0,BLUE,False,SS3_D1,5.0,1.0,1.0958,False,
5e76d2652d882b2481d65066,2.0,test,5.0,3.0,BLUE,False,SS5_D3,5.0,1.0,1.4009,False,
5e76d2652d882b2481d65066,2.0,test,3.0,1.0,RED,False,SS3_D1,5.0,1.0,1.0509,False,
5e76d2652d882b2481d65066,2.0,test,5.0,3.0,RED,True,SS5_D3,6.0,1.0,1.1874,False,
5e76d2652d882b2481d65066,2.0,test,5.0,3.0,BLUE,True,SS5_D3,5.0,0.0,2.416,False,
60a48adfe091e410f4eaba34,1.0,practice,5.0,1.0,RED,False,SS5_D1,5.0,1.0,0.9848,False,
60a48adfe091e410f4eaba34,1.0,practice,5.0,1.0,BLUE,True,SS5_D1,5.0,0.0,0.8163,False,
60a48adfe091e410f4eaba34,1.0,practice,3.0,1.0,RED,True,SS3_D1,6.0,1.0,1.179,False,
60a48adfe091e410f4eaba34,1.0,practice,3.0,1.0,RED,False,SS3_D1,5.0,1.0,1.3854,False,
60a48adfe091e410f4eaba34,1.0,practice,3.0,3.0,BLUE,True,SS3_D3,5.0,0.0,0.5425,False,
60a48adfe091e410f4eaba34,1.0,practice,5.0,3.0,RED,False,SS5_D3,5.0,1.0,1.2086,False,
60a48adfe091e410f4eaba34,1.0,practice,5.0,3.0,RED,True,SS5_D3,6.0,1.0,0.7115,False,
60a48adfe091e410f4eaba34,1.0,practice,3.0,3.0,RED,True,SS3_D3,6.0,1.0,0.8327,False,
60a48adfe091e410f4eaba34,1.0,practice,3.0,3.0,RED,False,SS3_D3,5.0,1.0,0.956,False,
60a48adfe091e410f4eaba34,1.0,practice,5.0,1.0,BLUE,False,SS5_D1,5.0,1.0,1.2288,False,
60a48adfe091e410f4eaba34,1.0,practice,5.0,3.0,BLUE,False,SS5_D3,6.0,0.0,0.7497,False,
60a48adfe091e410f4eaba34,1.0,practice,5.0,3.0,BLUE,True,SS5_D3,5.0,0.0,0.8544,False,
60a48adfe091e410f4eaba34,1.0,practice,5.0,1.0,RED,True,SS5_D1,5.0,0.0,0.5421,False,
60a48adfe091e410f4eaba34,1.0,practice,3.0,1.0,BLUE,False,SS3_D1,5.0,1.0,0.4299,False,
60a48adfe091e410f4eaba34,1.0,practice,3.0,1.0,BLUE,True,SS3_D1,6.0,1.0,0.624,False,
60a48adfe091e410f4eaba34,1.0,practice,3.0,3.0,BLUE,False,SS3_D3,5.0,1.0,0.561,False,
60a48adfe091e410f4eaba34,1.0,practice,3.0,1.0,RED,True,SS3_D1,6.0,1.0,0.5395,False,
60a48adfe091e410f4eaba34,1.0,practice,3.0,3.0,BLUE,False,SS3_D3,5.0,1.0,0.5835,False,
60a48adfe091e410f4eaba34,1.0,practice,3.0,3.0,RED,False,SS3_D3,5.0,1.0,0.4817,False,
60a48adfe091e410f4eaba34,1.0,practice,3.0,1.0,BLUE,False,SS3_D1,5.0,1.0,0.7098,False,
60a48adfe091e410f4eaba34,1.0,practice,5.0,3.0,BLUE,False,SS5_D3,5.0,1.0,0.7451,False,
60a48adfe091e410f4eaba34,1.0,practice,5.0,1.0,BLUE,True,SS5_D1,6.0,1.0,0.4574,False,
60a48adfe091e410f4eaba34,1.0,practice,5.0,1.0,RED,True,SS5_D1,6.0,1.0,0.4378,False,
60a48adfe091e410f4eaba34,1.0,practice,5.0,3.0,RED,False,SS5_D3,5.0,1.0,0.4712,False,
60a48adfe091e410f4eaba34,1.0,practice,3.0,3.0,RED,True,SS3_D3,6.0,1.0,0.5383,False,
60a48adfe091e410f4eaba34,1.0,practice,5.0,3.0,RED,True,SS5_D3,6.0,1.0,0.5811,False,
60a48adfe091e410f4eaba34,1.0,practice,3.0,1.0,RED,False,SS3_D1,6.0,0.0,0.58,False,
60a48adfe091e410f4eaba34,1.0,practice,3.0,1.0,BLUE,True,SS3_D1,5.0,0.0,0.6453,False,
60a48adfe091e410f4eaba34,1.0,practice,5.0,1.0,RED,False,SS5_D1,5.0,1.0,0.5258,False,
60a48adfe091e410f4eaba34,1.0,practice,3.0,3.0,BLUE,True,SS3_D3,6.0,1.0,0.5985,False,
60a48adfe091e410f4eaba34,1.0,practice,5.0,1.0,BLUE,False,SS5_D1,6.0,0.0,0.675,False,
60a48adfe091e410f4eaba34,1.0,practice,5.0,3.0,BLUE,True,SS5_D3,5.0,0.0,0.5064,False,
60a48adfe091e410f4eaba34,1.0,test,5.0,1.0,BLUE,False,SS5_D1,6.0,0.0,0.7501,False,
60a48adfe091e410f4eaba34,1.0,test,3.0,3.0,BLUE,False,SS3_D3,6.0,0.0,1.4525,False,
60a48adfe091e410f4eaba34,1.0,test,5.0,1.0,BLUE,True,SS5_D1,6.0,1.0,1.1165,False,
60a48adfe091e410f4eaba34,1.0,test,3.0,3.0,RED,False,SS3_D3,5.0,1.0,0.5657,False,
60a48adfe091e410f4eaba34,1.0,test,5.0,1.0,RED,False,SS5_D1,5.0,1.0,0.668,False,
60a48adfe091e410f4eaba34,1.0,test,5.0,3.0,RED,True,SS5_D3,6.0,1.0,0.8064,False,
60a48adfe091e410f4eaba34,1.0,test,3.0,1.0,RED,False,SS3_D1,6.0,0.0,0.7505,False,
60a48adfe091e410f4eaba34,1.0,test,3.0,3.0,RED,True,SS3_D3,5.0,0.0,0.9595,False,
60a48adfe091e410f4eaba34,1.0,test,5.0,3.0,RED,False,SS5_D3,5.0,1.0,1.14,False,
60a48adfe091e410f4eaba34,1.0,test,5.0,1.0,RED,True,SS5_D1,5.0,0.0,0.5413,False,
60a48adfe091e410f4eaba34,1.0,test,3.0,1.0,RED,True,SS3_D1,5.0,0.0,0.7279,False,
60a48adfe091e410f4eaba34,1.0,test,5.0,3.0,BLUE,False,SS5_D3,5.0,1.0,0.6749,False,
60a48adfe091e410f4eaba34,1.0,test,3.0,3.0,BLUE,True,SS3_D3,6.0,1.0,1.3713,False,
60a48adfe091e410f4eaba34,1.0,test,5.0,3.0,BLUE,True,SS5_D3,5.0,0.0,1.1483,False,
60a48adfe091e410f4eaba34,1.0,test,3.0,1.0,BLUE,True,SS3_D1,6.0,1.0,0.9854,False,
60a48adfe091e410f4eaba34,1.0,test,3.0,1.0,BLUE,False,SS3_D1,5.0,1.0,1.2817,False,
60a48adfe091e410f4eaba34,1.0,test,3.0,3.0,BLUE,False,SS3_D3,6.0,0.0,1.3797,False,
60a48adfe091e410f4eaba34,1.0,test,5.0,3.0,BLUE,True,SS5_D3,5.0,0.0,0.9642,False,
60a48adfe091e410f4eaba34,1.0,test,5.0,3.0,BLUE,False,SS5_D3,5.0,1.0,1.3284,False,
60a48adfe091e410f4eaba34,1.0,test,3.0,1.0,RED,False,SS3_D1,5.0,1.0,0.796,False,
60a48adfe091e410f4eaba34,1.0,test,5.0,3.0,RED,False,SS5_D3,5.0,1.0,0.7071,False,
60a48adfe091e410f4eaba34,1.0,test,3.0,3.0,BLUE,True,SS3_D3,5.0,0.0,0.6972,False,
60a48adfe091e410f4eaba34,1.0,test,5.0,1.0,BLUE,True,SS5_D1,6.0,1.0,0.9021,False,
60a48adfe091e410f4eaba34,1.0,test,3.0,1.0,BLUE,True,SS3_D1,6.0,1.0,3.7886,True,RT outlier in SS3_D1
60a48adfe091e410f4eaba34,1.0,test,5.0,1.0,RED,True,SS5_D1,6.0,1.0,1.2826,False,
60a48adfe091e410f4eaba34,1.0,test,3.0,1.0,RED,True,SS3_D1,6.0,1.0,0.8964,False,
60a48adfe091e410f4eaba34,1.0,test,3.0,3.0,RED,True,SS3_D3,6.0,1.0,0.9096,False,
60a48adfe091e410f4eaba34,1.0,test,5.0,3.0,RED,True,SS5_D3,6.0,1.0,0.9171,False,
60a48adfe091e410f4eaba34,1.0,test,3.0,1.0,BLUE,False,SS3_D1,6.0,0.0,1.0859,False,
60a48adfe091e410f4eaba34,1.0,test,3.0,3.0,RED,False,SS3_D3,5.0,1.0,1.0211,False,
60a48adfe091e410f4eaba34,1.0,test,5.0,1.0,RED,False,SS5_D1,5.0,1.0,0.7419,False,
60a48adfe091e410f4eaba34,1.0,test,5.0,1.0,BLUE,False,SS5_D1,6.0,0.0,1.0316,False,
60a48adfe091e410f4eaba34,1.0,test,3.0,1.0,RED,True,SS3_D1,6.0,1.0,1.1993,False,
60a48adfe091e410f4eaba34,1.0,test,5.0,1.0,BLUE,True,SS5_D1,6.0,1.0,0.9264,False,
60a48adfe091e410f4eaba34,1.0,test,3.0,3.0,BLUE,True,SS3_D3,5.0,0.0,0.8968,False,
