PROLIFIC_PID,overall_accuracy,practice_accuracy,max_consecutive_identical,percent_fast_trials,rt_sd,percent_missing_ss3_d1,percent_missing_ss3_d3,percent_missing_ss5_d1,percent_missing_ss5_d3,time_taken_minutes,excluded,exclusion_reason,n_excluded_trials_too_fast,n_excluded_trials_too_slow,n_excluded_trials_outlier
5cd063ce657e300016f6c95a,0.8214285714285714,0.90625,9.0,0.8928571428571428,0.3449484217956712,0.0,0.0,0.0,0.0,49.81666666666667,False,,1,0,2
678e92010390e1c202944292,0.7142857142857143,0.8064516129032258,5.0,0.0,0.38317928374035765,0.0,0.0,0.0,0.0,25.73333333333333,False,,0,0,2
64013a8e233aaa42388c821f,0.7678571428571429,0.84375,7.0,0.0,0.6127156878002853,0.0,0.0,0.0,0.0,35.1,False,,0,0,4
676379302839a2e46a4d6de5,0.6126126126126126,0.53125,8.0,0.0,1.0818554919403243,0.0,0.0,0.0,0.0,24.016666666666666,False,,0,0,5
671fbc510bb94767d36db746,0.6517857142857143,0.5,12.0,0.8928571428571428,0.6919867702977079,0.0,0.0,0.0,0.0,36.48333333333333,True,More than 10 consecutive identical responses,0,0,0
6754d95f656838004bc46eed,0.8303571428571429,0.625,7.0,0.0,0.9663797645678183,0.0,0.0,0.0,0.0,49.4,False,,0,0,6
6766b76b0b5bf9820e277b72,0.5833333333333334,0.53125,10.0,0.9259259259259258,1.0744496006432456,0.0,0.0,0.0,0.0,46.06666666666667,True,Overall accuracy < 60%,0,0,0
672ba9e5dbe3b9649ad3864d,0.75,0.6774193548387096,7.0,0.0,0.5477959502942531,0.0,0.0,0.0,0.0,60.38333333333333,False,,0,0,3
64012a2623351894f2917605,0.7946428571428571,0.53125,6.0,0.0,0.2470803527028468,0.0,0.0,0.0,0.0,35.2,False,,0,0,4
675ed2ef6a6a6ae2ce682c30,0.5,0.5,10.0,0.8928571428571428,0.41120170909159115,0.0,0.0,0.0,0.0,28.73333333333333,True,Overall accuracy < 60%,0,0,0
6761e9f88b9ec3f7f3d16c01,0.5,0.5625,12.0,0.8928571428571428,0.7414282607441639,0.0,0.0,0.0,0.0,44.75,True,Overall accuracy < 60%; More than 10 consecutive identical responses,0,0,0
5e76d2652d882b2481d65066,0.7946428571428571,0.84375,6.0,0.0,1.15439904534788,0.0,0.0,0.0,0.0,33.55,False,,0,0,6
671469967e2a4f2e612e3846,0.5267857142857143,0.375,7.0,0.0,0.478758977213533,0.0,0.0,0.0,0.0,32.11666666666667,True,Overall accuracy < 60%; Practice accuracy < 50%,0,0,0
60a48adfe091e410f4eaba34,0.6696428571428571,0.71875,8.0,0.0,0.49626547146586847,0.0,0.0,0.0,0.0,36.15,False,,0,0,2
65c181b4de219e8c75ae4fb8,0.5446428571428571,0.84375,5.0,0.0,0.40628992059179264,0.0,0.0,0.0,0.0,35.8,True,Overall accuracy < 60%,0,0,0
62964d27c2b2866faa677493,0.44144144144144143,0.625,7.0,39.63963963963964,0.5352222334929905,0.0,0.0,0.0,0.0,42.48333333333333,True,Overall accuracy < 60%; More than 10% of trials with RT < 200ms,0,0,0
651d64f5eb4ac4993ecc5abd,0.7410714285714286,0.6875,6.0,0.0,0.5373109972264744,0.0,0.0,0.0,0.0,26.266666666666666,False,,0,0,3
62861bcc5f0edf6340c914df,0.9642857142857143,0.875,5.0,0.0,0.27782536431331045,0.0,0.0,0.0,0.0,29.766666666666666,False,,0,0,3
6773f03382962d5d8c2ca38a,0.5892857142857143,0.71875,15.0,1.7857142857142856,0.7428548456605532,0.0,0.0,0.0,0.0,53.71666666666667,True,Overall accuracy < 60%; More than 10 consecutive identical responses,0,0,0
6721aeda53346fd7b593efd7,0.875,0.6875,7.0,0.0,0.42972911990710955,0.0,0.0,0.0,0.0,32.13333333333333,False,,0,0,3
66bab7aa032ffe5aeb0a3834,0.5625,0.40625,11.0,0.0,0.6953908057080481,0.0,0.0,0.0,0.0,55.73333333333333,True,Overall accuracy < 60%; More than 10 consecutive identical responses; Practice accuracy < 50%,0,0,0
664f408259a7d76b52e2ae25,0.8839285714285714,0.71875,6.0,0.0,0.3913212175593062,0.0,0.0,0.0,0.0,27.366666666666667,False,,0,0,3
62ffa989dbd072768cd2a14e,0.4857142857142857,0.5625,25.0,1.9047619047619049,1.6227714020387238,0.0,0.0,0.0,0.0,86.15,True,Overall accuracy < 60%; More than 10 consecutive identical responses,0,0,0
678fa1020e5289062a7e76f0,0.5803571428571429,0.40625,9.0,0.0,1.23824467453027,0.0,0.0,0.0,0.0,47.73333333333333,True,Overall accuracy < 60%; Practice accuracy < 50%,0,0,0
67896c4807b59990758d8491,0.5045045045045045,0.3548387096774194,18.0,2.7027027027027026,1.0648566696020965,0.0,0.0,0.0,0.0,58.5,True,Overall accuracy < 60%; More than 10 consecutive identical responses; Practice accuracy < 50%,0,0,0
6699571ba83beb19c5acbfef,0.7142857142857143,0.6875,7.0,0.0,0.6045183687634795,0.0,0.0,0.0,0.0,37.28333333333333,False,,0,0,6
6788f11866ac65cc607b3c6a,0.49107142857142855,0.4838709677419355,11.0,0.0,0.6794351832059397,0.0,0.0,0.0,0.0,61.66666666666666,True,Overall accuracy < 60%; More than 10 consecutive identical responses; Practice accuracy < 50%,0,0,0
672d053f3563ff089759a66f,0.6875,0.6875,16.0,0.0,0.7343136804526192,0.0,0.0,0.0,0.0,93.31666666666666,True,More than 10 consecutive identical responses,0,0,0
61233706eb1ec697c18d5aef,0.625,0.40625,4.0,25.0,1.6978932815509091,0.0,,0.0,0.0,20.416666666666668,True,More than 10% of trials with RT < 200ms; Practice accuracy < 50%,0,0,0
67822f906480ae6f11bf6942,0.5225225225225225,0.2903225806451613,7.0,0.0,1.1337401829594833,0.0,0.0,0.0,0.0,41.7,True,Overall accuracy < 60%; Practice accuracy < 50%,0,0,0
669adbdb7e97d6e53cb2d924,0.8571428571428571,0.65625,10.0,0.0,0.4503633374267917,0.0,0.0,0.0,0.0,36.25,False,,0,0,3
67343fb98c1f4f89ea821878,0.6306306306306306,0.78125,6.0,0.9009009009009009,1.131798569912807,0.0,0.0,0.0,0.0,78.35,False,,1,0,4
6786d027b56713ac675fbbb1,0.7297297297297297,0.78125,12.0,0.0,1.0856220769233453,0.0,0.0,0.0,0.0,45.016666666666666,True,More than 10 consecutive identical responses,0,0,0
676fac81dc17021dfb5fad67,0.7678571428571429,0.6875,7.0,0.0,0.6711713511410504,0.0,0.0,0.0,0.0,42.75,False,,0,0,4
67880f3fcfe89c43f375f668,0.4642857142857143,0.375,8.0,58.03571428571429,1.361648740952649,0.0,0.0,0.0,0.0,24.416666666666668,True,Overall accuracy < 60%; More than 10% of trials with RT < 200ms; Practice accuracy < 50%,0,0,0
5d634b27e5f92f0017196a3f,0.5495495495495496,0.5,8.0,2.7027027027027026,1.3633682259175037,0.0,0.0,0.0,0.0,41.31666666666667,True,Overall accuracy < 60%,0,0,0
55ec49b67480920010aaa4e8,0.5267857142857143,0.5,6.0,0.0,0.7065580790495157,0.0,0.0,0.0,0.0,24.7,True,Overall accuracy < 60%,0,0,0
612039d9400fae9545b3c5a8,0.8475336322869955,0.7395833333333334,7.0,0.0,0.5716230974239038,0.0,0.0,0.0,0.0,57.16666666666666,False,,0,0,7
65d863e56337aa59292ccd66,0.7678571428571429,0.625,11.0,0.0,0.2801096166889801,0.0,0.0,0.0,0.0,27.83333333333333,True,More than 10 consecutive identical responses,0,0,0
6727e10a76e80949064e1e6c,0.49107142857142855,0.59375,7.0,0.0,0.9303024880292591,0.0,0.0,0.0,0.0,47.85,True,Overall accuracy < 60%,0,0,0
6110b58d7063061e373e2fbc,0.6875,0.875,9.0,0.0,0.7695602074513308,0.0,0.0,0.0,0.0,39.45,False,,0,0,5
67358110193306101974db30,0.8214285714285714,0.625,8.0,0.0,0.5463846252170574,0.0,0.0,0.0,0.0,50.65,False,,0,0,4
678a7c0fa6dada0f1ffae746,0.5225225225225225,0.34375,13.0,1.8018018018018018,1.4242865960291047,0.0,0.0,0.0,0.0,59.266666666666666,True,Overall accuracy < 60%; More than 10 consecutive identical responses; Practice accuracy < 50%,0,0,0
676a8044ed42478d4ef6493e,0.4387755102040816,0.5625,20.0,5.1020408163265305,1.9208938839645868,0.0,0.0,0.0,0.0,60.91666666666666,True,Overall accuracy < 60%; More than 10 consecutive identical responses,0,0,0
60fdc934e81b93f92f561d76,0.8392857142857143,0.625,8.0,0.0,0.5891031860616818,0.0,0.0,0.0,0.0,30.95,False,,0,0,3
67147a6a2c208253099ab82b,0.6696428571428571,0.625,8.0,0.0,0.31398829005782414,0.0,0.0,0.0,0.0,32.45,False,,0,0,2
6127017baee75f10aa174139,0.5267857142857143,0.625,11.0,0.0,0.8437713779664598,0.0,0.0,0.0,0.0,34.4,True,Overall accuracy < 60%; More than 10 consecutive identical responses,0,0,0
6655fd511b6c8d1fd05de12d,0.7946428571428571,0.59375,7.0,0.0,1.1696169077165572,0.0,0.0,0.0,0.0,50.93333333333333,False,,0,0,3
5e968e6744b6d010b16540a4,0.8660714285714286,0.6875,5.0,0.0,0.5434795883771767,0.0,0.0,0.0,0.0,38.6,False,,0,0,4
6612a3d099bbffc5cc1eebff,0.625,0.53125,9.0,0.0,0.3967228402412848,0.0,0.0,0.0,0.0,42.45,False,,0,0,4
673a37f0ad04c995c8322ca6,0.9464285714285714,0.8709677419354839,5.0,0.0,1.1796261894490037,0.0,0.0,0.0,0.0,33.6,False,,0,0,4
66f8367b5310ebb97346b93c,0.7232142857142857,0.8125,9.0,0.8928571428571428,0.3526681110204425,0.0,0.0,0.0,0.0,35.31666666666667,False,,1,0,2
610341bbc7f7114aea9a2cea,0.6160714285714286,0.5806451612903226,5.0,0.0,0.45489226392816623,0.0,0.0,0.0,0.0,31.98333333333333,False,,0,0,5
671eff2e0b8f048504452726,0.7767857142857143,0.6875,6.0,0.0,0.693319405481495,0.0,0.0,0.0,0.0,38.16666666666666,False,,0,0,5
673e759016f888e8212c0c1f,0.75,0.5625,9.0,0.8928571428571428,1.156170548589609,0.0,0.0,0.0,0.0,31.25,False,,1,0,2
6705779b28e9a54f7b3b3535,0.5089285714285714,0.5625,6.0,1.7857142857142856,0.3947440465553119,0.0,0.0,0.0,0.0,29.08333333333333,True,Overall accuracy < 60%,0,0,0
678e5e240021ccd474206641,0.5855855855855856,0.5806451612903226,12.0,0.0,1.076723752295247,0.0,0.0,0.0,0.0,62.516666666666666,True,Overall accuracy < 60%; More than 10 consecutive identical responses,0,0,0
6646abc0720d1baaa7e0af4c,0.625,0.625,9.0,0.0,0.3133808807732247,0.0,0.0,0.0,0.0,28.516666666666666,False,,0,0,3
67851f4cba98f2087f182764,0.7321428571428571,0.5483870967741935,9.0,0.0,0.7209512934640301,0.0,0.0,0.0,0.0,57.15,False,,0,0,4
664ba1d1d71301161344e2a5,0.7946428571428571,0.6875,8.0,0.8928571428571428,0.4669459275332261,0.0,0.0,0.0,0.0,29.85,False,,1,0,4
6668d4917e343a318af11adf,0.7678571428571429,0.5,10.0,0.0,0.5851942133809231,0.0,0.0,0.0,0.0,47.16666666666666,False,,0,0,5
65fa95fafeda35caf378b6f9,0.875,0.78125,7.0,0.0,0.49751020388829514,0.0,0.0,0.0,0.0,34.95,False,,0,0,4
5d776e218a8d1d00166d36a6,0.8214285714285714,0.625,8.0,0.0,0.2666196091945949,0.0,0.0,0.0,0.0,27.3,False,,0,0,5
6772e011adc3bb3fd579cdb9,0.6339285714285714,0.8125,14.0,3.571428571428571,0.5276294160012558,0.0,0.0,0.0,0.0,102.53333333333332,True,More than 10 consecutive identical responses,0,0,0
67519b91595db9a046359da0,0.6071428571428571,0.625,12.0,0.0,0.32124344385214443,0.0,0.0,0.0,0.0,37.266666666666666,True,More than 10 consecutive identical responses,0,0,0
66122c3b55a1487b4e58e292,0.5982142857142857,0.8125,8.0,0.0,0.6627492265510988,0.0,0.0,0.0,0.0,29.75,True,Overall accuracy < 60%,0,0,0
6575c6e1563027adb8f299cb,0.8482142857142857,0.65625,8.0,0.0,1.1089103250525736,0.0,0.0,0.0,0.0,29.05,False,,0,0,4
675f432df87b18ecba0964f4,0.6090909090909091,0.5,6.0,1.8181818181818181,0.9977761773715127,0.0,0.0,0.0,0.0,44.05,False,,2,0,4
672a89bc5e3d67a9fdbdf803,0.7946428571428571,0.53125,5.0,0.0,0.44089091246203105,0.0,0.0,0.0,0.0,46.05,False,,0,0,5
5a9bbda1f6dfdd0001ea9639,0.8035714285714286,0.625,11.0,0.0,0.38852228374265413,0.0,0.0,0.0,0.0,27.716666666666665,True,More than 10 consecutive identical responses,0,0,0
660e2337aad9e33736f08e84,0.8571428571428571,0.75,6.0,0.0,1.2052998403701327,0.0,0.0,0.0,0.0,34.28333333333333,False,,0,0,3
605e42cc59833acecfd3f301,0.8303571428571429,0.8125,11.0,0.0,0.5904273598602603,0.0,0.0,0.0,0.0,34.516666666666666,True,More than 10 consecutive identical responses,0,0,0
677d3cc83d0aa6a39541f5d6,0.7946428571428571,0.6875,6.0,0.8928571428571428,1.241707713445409,0.0,0.0,0.0,0.0,38.88333333333333,False,,1,0,4
66e7a85e45c1132f1e2d12b6,0.7678571428571429,0.78125,8.0,0.0,1.0002829263755448,0.0,0.0,0.0,0.0,30.616666666666667,False,,0,0,5
667af5cc382d3037050e3632,0.8482142857142857,0.78125,7.0,0.0,0.27809336309442656,0.0,0.0,0.0,0.0,39.75,False,,0,0,3
65d563ecf8df20ade2f17888,0.9017857142857143,0.84375,10.0,0.0,0.8144378769224765,0.0,0.0,0.0,0.0,41.333333333333336,False,,0,0,7
5d27851db6eb920018a5fb27,0.6160714285714286,0.59375,7.0,0.0,0.9750373764475675,0.0,0.0,0.0,0.0,36.75,False,,0,0,6
5eddaa6d115bb4ac7e59f153,0.7946428571428571,0.75,8.0,0.0,0.9291951375022117,0.0,0.0,0.0,0.0,27.216666666666665,False,,0,0,5
653ed34dfa601f3952c72ed4,0.8018018018018018,0.78125,10.0,0.0,0.7419867540126449,0.0,0.0,0.0,0.0,36.41666666666666,False,,0,0,5
63d5decffe6025fec6a381b0,0.6785714285714286,0.75,15.0,0.0,0.40370154638212524,0.0,0.0,0.0,0.0,35.13333333333333,True,More than 10 consecutive identical responses,0,0,0
651b43625c3bc6e2217a7e24,0.5714285714285714,0.46875,8.0,0.0,0.2946459249777888,0.0,0.0,0.0,0.0,28.616666666666667,True,Overall accuracy < 60%; Practice accuracy < 50%,0,0,0
674f479b2a4ef75e4551f258,0.5625,0.4375,18.0,0.0,0.34876794470008526,0.0,0.0,0.0,0.0,36.3,True,Overall accuracy < 60%; More than 10 consecutive identical responses; Practice accuracy < 50%,0,0,0
67438c306d8298ec577da281,0.5178571428571429,0.375,7.0,0.0,0.3171827052204943,0.0,0.0,0.0,0.0,43.833333333333336,True,Overall accuracy < 60%; Practice accuracy < 50%,0,0,0
5df967d2f6191f6e87b236e6,0.6785714285714286,0.59375,6.0,0.0,0.7646342190510796,0.0,0.0,0.0,0.0,23.816666666666663,False,,0,0,4
678434b875eab5b07a505724,0.8303571428571429,0.78125,9.0,0.0,1.1803934811413292,0.0,0.0,0.0,0.0,39.56666666666667,False,,0,0,4
66849ebd4dd65cfd282d2ad5,0.5765765765765766,0.53125,7.0,29.72972972972973,0.3802600005668779,0.0,0.0,0.0,0.0,42.8,True,Overall accuracy < 60%; More than 10% of trials with RT < 200ms,0,0,0
5e4e844553bc702cdf68404d,0.7232142857142857,0.78125,6.0,0.0,0.25178909753926926,0.0,0.0,0.0,0.0,39.03333333333333,False,,0,0,1
6500aa732c4f0eb077f8c809,0.7678571428571429,0.71875,5.0,0.0,0.22032630626483016,0.0,0.0,0.0,0.0,105.38333333333334,False,,0,0,3
671e39c25e5e3f340a6f21d4,0.5178571428571429,0.625,10.0,0.0,0.5467352048696762,0.0,0.0,0.0,0.0,49.7,True,Overall accuracy < 60%,0,0,0
58a229e74d580c0001e0a766,0.6785714285714286,0.5,12.0,0.8928571428571428,0.3429152036774702,0.0,0.0,0.0,0.0,30.15,True,More than 10 consecutive identical responses,0,0,0
630386f64c5bbd56ab1c3b0f,0.8482142857142857,0.75,6.0,0.0,0.46920603039253933,0.0,0.0,0.0,0.0,31.316666666666663,False,,0,0,2
66c9071f0a3b0e1d3a041c01,0.7232142857142857,0.5625,7.0,0.0,0.3986554269785619,0.0,0.0,0.0,0.0,35.766666666666666,False,,0,0,4
662ddcfc1103d1acda67d937,0.6428571428571429,0.625,12.0,0.0,0.3495886771952631,0.0,0.0,0.0,0.0,28.33333333333333,True,More than 10 consecutive identical responses,0,0,0
5e7987df47422a5443426cd7,0.7232142857142857,0.6875,10.0,0.0,0.18201727718768848,0.0,0.0,0.0,0.0,28.35,False,,0,0,5
661ae93e33b51f5d31a8c3bb,0.5357142857142857,0.5,9.0,0.0,0.9638122828988364,0.0,0.0,0.0,0.0,49.75,True,Overall accuracy < 60%,0,0,0
678ba680eefc2d7fd8559a03,0.6696428571428571,0.59375,12.0,0.0,0.9779498945551641,0.0,0.0,0.0,0.0,50.11666666666667,True,More than 10 consecutive identical responses,0,0,0
6779262b285a5b12c721ecee,0.5945945945945946,0.28125,16.0,0.0,1.302900183529968,0.0,0.0,0.0,0.0,48.5,True,Overall accuracy < 60%; More than 10 consecutive identical responses; Practice accuracy < 50%,0,0,0
67704d25c22e3bfcf98ab4fc,0.5803571428571429,0.5625,14.0,0.8928571428571428,0.7474227436946165,0.0,0.0,0.0,0.0,30.85,True,Overall accuracy < 60%; More than 10 consecutive identical responses,0,0,0
671d2abf2ba7384f9b45678a,0.6909090909090909,0.8125,5.0,0.0,1.2894992719037106,0.0,0.0,0.0,0.0,36.96666666666667,False,,0,0,5
66370a20a4b5b1a460904760,0.9017857142857143,0.875,6.0,0.0,0.38884928073408226,0.0,0.0,0.0,0.0,35.95,False,,0,0,1
5d47901043518d0017bf3c04,0.5982142857142857,0.53125,7.0,0.8928571428571428,0.25714783693005405,0.0,0.0,0.0,0.0,24.933333333333334,True,Overall accuracy < 60%,0,0,0
6535d3f1b4ff80adff474548,0.7053571428571429,0.8125,12.0,0.0,0.5045746216622585,0.0,0.0,0.0,0.0,24.966666666666665,True,More than 10 consecutive identical responses,0,0,0
678d4b5574c6a54d8f4cafd8,0.8571428571428571,0.625,9.0,0.0,0.6285937312419879,0.0,0.0,0.0,0.0,27.766666666666666,False,,0,0,2
5b19f4854c72120001f1e1b3,0.8035714285714286,0.53125,8.0,0.0,0.3943681174711043,0.0,0.0,0.0,0.0,57.78333333333333,False,,0,0,2
67856f922cc646ac823a1660,0.8928571428571429,0.71875,8.0,0.0,0.6932050608832874,0.0,0.0,0.0,0.0,33.1,False,,0,0,5
668d44c46cb23976673acd95,0.7142857142857143,0.59375,12.0,0.8928571428571428,0.5800299385156642,0.0,0.0,0.0,0.0,21.966666666666665,True,More than 10 consecutive identical responses,0,0,0
6766a8b9f2f6140bdb9fab39,0.6,0.53125,18.0,0.0,0.9461547792668181,0.0,0.0,0.0,0.0,47.13333333333333,True,More than 10 consecutive identical responses,0,0,0
6736142695794b6108842ed2,0.7589285714285714,0.6875,7.0,0.0,0.8353270593870523,0.0,0.0,0.0,0.0,29.03333333333333,False,,0,0,4
66e2a683a6aed2b156557f9d,0.6875,0.5625,5.0,0.0,0.7889355847320485,0.0,0.0,0.0,0.0,34.96666666666667,False,,0,0,5
664f98c80beb5400a141ac91,0.6071428571428571,0.625,8.0,0.0,0.6263329690310403,0.0,0.0,0.0,0.0,29.83333333333333,False,,0,0,4
676063838d4db0d3eaa69c2b,0.6339285714285714,0.53125,13.0,0.0,0.7795995728300039,0.0,0.0,0.0,0.0,38.38333333333333,True,More than 10 consecutive identical responses,0,0,0
5b68c9eb87af310001584803,0.7589285714285714,0.75,6.0,0.0,0.38126035126884894,0.0,0.0,0.0,0.0,24.1,False,,0,0,3
661ea4cacedd4c83df3a2dcb,0.4594594594594595,0.375,7.0,1.8018018018018018,1.1489056187332174,0.0,0.0,0.0,0.0,30.383333333333333,True,Overall accuracy < 60%; Practice accuracy < 50%,0,0,0
666640831e2f8d963f8c528f,0.8571428571428571,0.75,6.0,0.0,0.19866374045820306,0.0,0.0,0.0,0.0,40.38333333333333,False,,0,0,4
678851f427536397f63120bf,0.7410714285714286,0.8125,10.0,0.0,0.7824609555906348,0.0,0.0,0.0,0.0,32.766666666666666,False,,0,0,4
678aa22eb5db2af9be397452,0.5892857142857143,0.53125,9.0,0.0,0.662153301944422,0.0,0.0,0.0,0.0,40.21666666666667,True,Overall accuracy < 60%,0,0,0
60a1e1f4a3707c983a98f185,0.7410714285714286,0.4838709677419355,12.0,0.0,0.1578050701163944,0.0,0.0,0.0,0.0,29.9,True,More than 10 consecutive identical responses; Practice accuracy < 50%,0,0,0
676eb8d5dd1b9e51d21ec734,0.7232142857142857,0.625,15.0,0.0,0.6486561301486141,0.0,0.0,0.0,0.0,51.03333333333333,True,More than 10 consecutive identical responses,0,0,0
676b5cae2bdeb2fceba3e9cb,0.6272727272727273,0.5,7.0,0.0,0.856663859482987,0.0,0.0,0.0,0.0,28.55,False,,0,0,3
656cef93133dd04969014614,0.75,0.65625,8.0,0.0,0.2864181563377622,0.0,0.0,0.0,0.0,55.06666666666667,False,,0,0,1
5d4869cc692e5400197a980c,0.8571428571428571,0.75,6.0,0.0,0.2823685818342375,0.0,0.0,0.0,0.0,26.416666666666668,False,,0,0,3
66ae394dd6f0020399d3b887,0.509090909090909,0.6875,9.0,8.181818181818182,1.3593122219958846,0.0,0.0,0.0,0.0,24.816666666666663,True,Overall accuracy < 60%,0,0,0
66bfd3867e3dd5e2c19650b9,0.5535714285714286,0.53125,12.0,0.8928571428571428,0.38977729736502614,0.0,0.0,0.0,0.0,45.88333333333333,True,Overall accuracy < 60%; More than 10 consecutive identical responses,0,0,0
561487ad7ffc8a0012812266,0.8125,0.75,6.0,0.0,0.4112065577349121,0.0,0.0,0.0,0.0,33.05,False,,0,0,2
66505efb53953d2da6e1a8cd,0.6785714285714286,0.59375,5.0,0.0,0.9754005773889292,0.0,0.0,0.0,0.0,33.0,False,,0,0,5
67529d0aecb73bfe140d521f,0.625,0.53125,13.0,0.8928571428571428,0.9096819579852513,0.0,0.0,0.0,0.0,50.3,True,More than 10 consecutive identical responses,0,0,0
67855ba77a8e1aaf8e477978,0.6339285714285714,0.6875,6.0,0.0,0.6587001946907881,0.0,0.0,0.0,0.0,29.516666666666666,False,,0,0,4
677c4a2cd686c6b6cfd1ba2a,0.7678571428571429,0.625,10.0,0.0,0.5868916755484136,0.0,0.0,0.0,0.0,42.85,False,,0,0,2
6659f937e570ab09f05021a3,0.7410714285714286,0.53125,7.0,0.0,0.45214478810219566,0.0,0.0,0.0,0.0,28.35,False,,0,0,4
670cf1827819b4f39133584b,0.5688073394495413,0.59375,7.0,3.669724770642202,0.5011273445784014,0.0,0.0,0.0,0.0,26.566666666666663,True,Overall accuracy < 60%,0,0,0
6773fd82b205d22a2e097d3f,0.6517857142857143,0.65625,12.0,1.7857142857142856,0.7548876831574047,0.0,0.0,0.0,0.0,65.85,True,More than 10 consecutive identical responses,0,0,0
663b638be7226d4e3fcc255f,0.49107142857142855,0.5625,5.0,0.0,1.0373122499139733,0.0,0.0,0.0,0.0,49.6,True,Overall accuracy < 60%,0,0,0
63ebd39a63bb79b50d438ab7,0.8035714285714286,0.625,6.0,0.0,0.5891656414420512,0.0,0.0,0.0,0.0,57.95,False,,0,0,5
63d7fb6ee49281f6c41d6630,0.5625,0.53125,7.0,0.8928571428571428,0.5098423730017699,0.0,0.0,0.0,0.0,30.4,True,Overall accuracy < 60%,0,0,0
655fd5be8c6f7bfe39e75e96,0.6936936936936937,0.75,8.0,17.117117117117118,0.786309493838093,0.0,0.0,0.0,0.0,33.0,True,More than 10% of trials with RT < 200ms,0,0,0
66ee186efc9a208ef9446a30,0.7946428571428571,0.8125,7.0,0.0,0.6297804901635977,0.0,0.0,0.0,0.0,39.66666666666666,False,,0,0,4
60e5cb4ca01a593fce9a379d,0.5625,0.65625,19.0,0.8928571428571428,0.8628668289284797,0.0,0.0,0.0,0.0,28.8,True,Overall accuracy < 60%; More than 10 consecutive identical responses,0,0,0
5d91daf3704e790018f47229,0.49107142857142855,0.59375,14.0,0.0,0.302373016919506,0.0,0.0,0.0,0.0,22.23333333333333,True,Overall accuracy < 60%; More than 10 consecutive identical responses,0,0,0
66625801c143ca548bcac338,0.7589285714285714,0.71875,8.0,0.0,0.4476936306125959,0.0,0.0,0.0,0.0,39.15,False,,0,0,5
676866e58c692de18dac2de9,0.5045045045045045,0.5,8.0,2.7027027027027026,0.7198829652196471,0.0,0.0,0.0,0.0,47.2,True,Overall accuracy < 60%,0,0,0
653d3b418bce22526d2639b4,0.8660714285714286,0.875,5.0,0.0,0.3486224003942203,0.0,0.0,0.0,0.0,28.916666666666668,False,,0,0,4
6779d0e560ce37d982f31caf,0.6875,0.75,8.0,0.0,0.7478815508008698,0.0,0.0,0.0,0.0,34.833333333333336,False,,0,0,7
678b95e7567348686a870e6b,0.6339285714285714,0.6774193548387096,13.0,0.0,0.9311638048865126,0.0,0.0,0.0,0.0,58.28333333333333,True,More than 10 consecutive identical responses,0,0,0
67094b39bddd9489c48cdc8f,0.8482142857142857,0.75,6.0,0.0,0.32354143898628,0.0,0.0,0.0,0.0,69.45,False,,0,0,2
654e6dcbb060f1ea2d712339,0.8303571428571429,0.4838709677419355,6.0,0.0,0.32896505886514843,0.0,0.0,0.0,0.0,32.583333333333336,True,Practice accuracy < 50%,0,0,0
6750c18b7e2026c4edd0ad26,0.5625,0.65625,13.0,8.035714285714286,0.9967279116993693,0.0,0.0,0.0,0.0,45.25,True,Overall accuracy < 60%; More than 10 consecutive identical responses,0,0,0
671f3e367fa293418ae68c42,0.4954128440366973,0.4375,11.0,31.19266055045872,1.3013138719801947,0.0,0.0,0.0,0.0,36.55,True,Overall accuracy < 60%; More than 10 consecutive identical responses; More than 10% of trials with RT < 200ms; Practice accuracy < 50%,0,0,0
66046ee084b12b781cb49495,0.8303571428571429,0.75,7.0,0.0,0.3784328161192668,0.0,0.0,0.0,0.0,28.766666666666666,False,,0,0,4
673f18bb08e7ff5ef549e488,0.45535714285714285,0.53125,6.0,0.0,1.4814968528713004,0.0,0.0,0.0,0.0,60.13333333333333,True,Overall accuracy < 60%,0,0,0
65cba5349f4e1e5dfbe80fe8,0.8571428571428571,0.71875,7.0,0.0,0.3807980764554556,0.0,0.0,0.0,0.0,27.1,False,,0,0,5
67227eb3d24e7ab203397120,0.6964285714285714,0.5625,7.0,0.0,0.4831238625875483,0.0,0.0,0.0,0.0,36.0,False,,0,0,3
672d770786fa273d84b761d2,0.8839285714285714,0.78125,6.0,0.0,0.8174416875424051,0.0,0.0,0.0,0.0,32.85,False,,0,0,5
66f6e3a582de0614bd19b481,0.6464646464646465,0.53125,9.0,0.0,0.9919089522671494,0.0,0.0,0.0,0.0,46.63333333333333,False,,0,0,4
66fb8a3730fd6deba2e671e3,0.8214285714285714,0.875,8.0,0.0,0.4497254746454164,0.0,0.0,0.0,0.0,36.35,False,,0,0,5
67813733b9f7bd24cb2745b4,0.7946428571428571,0.75,7.0,0.0,1.0851661769498169,0.0,0.0,0.0,0.0,54.016666666666666,False,,0,0,6
5f81fc9446ee002f681ea5e3,0.6339285714285714,0.625,7.0,0.0,0.36155135845369246,0.0,0.0,0.0,0.0,64.86666666666666,False,,0,0,5
66969c9921e4f92ad108ed4c,0.7857142857142857,0.6875,9.0,0.0,0.5646912231277174,0.0,0.0,0.0,0.0,40.18333333333333,False,,0,0,3
66dd097265650e0dec23231f,0.75,0.71875,8.0,0.0,0.2596437413557142,0.0,0.0,0.0,0.0,31.28333333333333,False,,0,0,3
66463ff40a36377060b19272,0.5982142857142857,0.65625,10.0,0.0,1.1693395527143988,0.0,0.0,0.0,0.0,44.21666666666667,True,Overall accuracy < 60%,0,0,0
67896102d98295a520a25ebb,0.7857142857142857,0.6774193548387096,5.0,0.0,0.28392499260996984,0.0,0.0,0.0,0.0,42.56666666666667,False,,0,0,5
66b435b1d2d981a3ab684c2d,0.6696428571428571,0.78125,7.0,0.0,0.5335120383673181,0.0,0.0,0.0,0.0,32.083333333333336,False,,0,0,2
677fafc0a5ea31abbf20ebad,0.5803571428571429,0.6129032258064516,22.0,0.0,0.9684407161152542,0.0,0.0,0.0,0.0,64.13333333333334,True,Overall accuracy < 60%; More than 10 consecutive identical responses,0,0,0
590ffed3f128850001ada77b,0.9017857142857143,0.78125,6.0,0.0,0.902280782261603,0.0,0.0,0.0,0.0,43.0,False,,0,0,2
67842352fc58491ff1f4de9d,0.7410714285714286,0.625,12.0,0.0,0.45753497172688445,0.0,0.0,0.0,0.0,41.23333333333333,True,More than 10 consecutive identical responses,0,0,0
6776957e09a543d5a21c521a,0.5212765957446809,0.40625,24.0,20.212765957446805,1.3730734840116883,0.0,0.0,0.0,0.0,52.75,True,Overall accuracy < 60%; More than 10 consecutive identical responses; More than 10% of trials with RT < 200ms; Practice accuracy < 50%,0,0,0
6779e07aeb6a0e66e84ae0e7,0.8303571428571429,0.78125,7.0,0.0,0.3755177658516812,0.0,0.0,0.0,0.0,25.53333333333333,False,,0,0,5
673594215b1a0b92d5835525,0.5803571428571429,0.75,11.0,1.7857142857142856,1.1737149067071238,0.0,0.0,0.0,0.0,96.53333333333332,True,Overall accuracy < 60%; More than 10 consecutive identical responses,0,0,0
6501c0a2e788b5556c24569d,0.6339285714285714,0.71875,13.0,0.0,0.35678887835613565,0.0,0.0,0.0,0.0,36.21666666666667,True,More than 10 consecutive identical responses,0,0,0
66243f204cef464daff99f8d,0.7946428571428571,0.625,6.0,0.0,0.38867461086030963,0.0,0.0,0.0,0.0,30.433333333333334,False,,0,0,1
677614004b333b9a50de9d41,0.5535714285714286,0.45161290322580644,9.0,3.571428571428571,0.6378599693017115,0.0,0.0,0.0,0.0,65.76666666666667,True,Overall accuracy < 60%; Practice accuracy < 50%,0,0,0
6643bcf4ed868a9901a9dd7d,0.8839285714285714,0.84375,4.0,0.0,0.18573997350435975,0.0,0.0,0.0,0.0,28.3,False,,0,0,3
67683d2ef4617ea5d90b7539,0.6071428571428571,0.5625,7.0,23.214285714285715,0.47154732224487583,0.0,0.0,0.0,0.0,37.1,True,More than 10% of trials with RT < 200ms,0,0,0
676e81c9c452593cbf114baf,0.5892857142857143,0.59375,9.0,0.8928571428571428,0.9807180806294866,0.0,0.0,0.0,0.0,67.05,True,Overall accuracy < 60%,0,0,0
6747d17ec4d287d32e597fa9,0.7142857142857143,0.625,7.0,0.0,0.6451875447307113,0.0,0.0,0.0,0.0,48.03333333333333,False,,0,0,4
5cf398a1e55efc000127adae,0.5714285714285714,0.46875,6.0,0.0,0.17551962347023722,0.0,0.0,0.0,0.0,37.66666666666666,True,Overall accuracy < 60%; Practice accuracy < 50%,0,0,0
674083da048a73d78070ea5b,0.5,0.46875,11.0,62.5,0.1921385441581742,0.0,0.0,0.0,0.0,55.21666666666667,True,Overall accuracy < 60%; More than 10 consecutive identical responses; More than 10% of trials with RT < 200ms; Practice accuracy < 50%,0,0,0
5d76d2f7daf4bf00164d585b,0.7410714285714286,0.875,5.0,0.0,0.9587272928905303,0.0,0.0,0.0,0.0,103.21666666666668,False,,0,0,3
610b002738dd01f26e493999,0.8392857142857143,0.6774193548387096,7.0,0.0,0.37509323650879933,0.0,0.0,0.0,0.0,45.23333333333333,False,,0,0,2
5edc7aed858a159580341afa,0.5535714285714286,0.59375,12.0,0.0,0.5544824422479591,0.0,0.0,0.0,0.0,34.483333333333334,True,Overall accuracy < 60%; More than 10 consecutive identical responses,0,0,0
678553764d429ce5b3d40f4c,0.7142857142857143,0.65625,6.0,0.0,0.6695097725786728,0.0,0.0,0.0,0.0,30.883333333333333,False,,0,0,6
672ff021dad78d519a50f64a,0.6607142857142857,0.5625,9.0,0.0,0.4476412543361649,0.0,0.0,0.0,0.0,50.98333333333333,False,,0,0,5
677bbfba3b742e3a5bf9a5e7,0.4107142857142857,0.53125,10.0,0.0,0.7247175624510336,0.0,0.0,0.0,0.0,52.93333333333333,True,Overall accuracy < 60%,0,0,0
5ec0ba1bfa01894cceaa1b8e,0.7678571428571429,0.75,5.0,0.0,0.5050287431929928,0.0,0.0,0.0,0.0,36.516666666666666,False,,0,0,3
678e9a84c6c7879d007bbf4e,0.625,0.625,6.0,0.8928571428571428,0.5702144199199847,0.0,0.0,0.0,0.0,39.36666666666667,False,,1,0,3
678969200a76abe09fd2a75c,0.6428571428571429,0.5625,8.0,0.0,0.6407731301710925,0.0,0.0,0.0,0.0,55.73333333333333,False,,0,0,3
677fe9d3bafd440269d2ef89,0.6964285714285714,0.5,5.0,0.0,0.7722304858932894,0.0,0.0,0.0,0.0,40.8,False,,0,0,2
66564c348f25a6749f79a714,0.6875,0.6774193548387096,8.0,0.0,0.46798196711111,0.0,0.0,0.0,0.0,28.5,False,,0,0,4
6636a7456e7f277f59dda9bd,0.5535714285714286,0.46875,6.0,0.0,0.5904880233446579,0.0,0.0,0.0,0.0,32.71666666666667,True,Overall accuracy < 60%; Practice accuracy < 50%,0,0,0
66f5c81fa771db6db1bc2382,0.5267857142857143,0.6875,7.0,2.6785714285714284,0.6666747472316349,0.0,0.0,0.0,0.0,30.03333333333333,True,Overall accuracy < 60%,0,0,0
6738d09a032bf7224008ce7e,0.5803571428571429,0.53125,12.0,0.0,0.3317238346005378,0.0,0.0,0.0,0.0,47.36666666666667,True,Overall accuracy < 60%; More than 10 consecutive identical responses,0,0,0
6773f4dfb59cda6e2414cb19,0.7410714285714286,0.65625,7.0,0.0,0.7705746079928075,0.0,0.0,0.0,0.0,44.48333333333333,False,,0,0,4
66463d3560eac977430ac716,0.7857142857142857,0.625,6.0,0.0,0.4057196589590678,0.0,0.0,0.0,0.0,28.58333333333333,False,,0,0,2
664993e12a5b629050529e17,0.75,0.46875,9.0,0.0,0.38256967467973196,0.0,0.0,0.0,0.0,40.86666666666667,True,Practice accuracy < 50%,0,0,0
61008f090e777a2b47f1ad76,0.5370370370370371,0.65625,10.0,32.407407407407405,1.3663329599613103,0.0,0.0,0.0,0.0,24.166666666666668,True,Overall accuracy < 60%; More than 10% of trials with RT < 200ms,0,0,0
657ca800404c8884226c8f42,0.7410714285714286,0.65625,13.0,0.8928571428571428,1.0425089060031485,0.0,0.0,0.0,0.0,34.93333333333333,True,More than 10 consecutive identical responses,0,0,0
564e93659b124900127eb55b,0.8392857142857143,0.8064516129032258,6.0,0.0,0.30666036749176867,0.0,0.0,0.0,0.0,66.71666666666667,False,,0,0,3
65de5ddcc637719fe458fc76,0.75,0.71875,5.0,0.0,0.8585929389098289,0.0,0.0,0.0,0.0,42.9,False,,0,0,3
57dd186e6598aa0001992616,0.7857142857142857,0.84375,7.0,0.0,0.21860622189260964,0.0,0.0,0.0,0.0,32.71666666666667,False,,0,0,3
5da6139c002c29001335b5a2,0.8571428571428571,0.8125,9.0,0.0,0.27178882447480274,0.0,0.0,0.0,0.0,38.53333333333333,False,,0,0,3
6787a95f87a6e4a695780b13,0.6339285714285714,0.4375,11.0,0.0,0.31538639677089136,0.0,0.0,0.0,0.0,45.78333333333333,True,More than 10 consecutive identical responses; Practice accuracy < 50%,0,0,0
675c3fae9f1afa4c4207dab3,0.875,0.6774193548387096,7.0,0.0,0.6085122070239583,0.0,0.0,0.0,0.0,27.15,False,,0,0,5
6780b105e7a5923128d8457d,0.48214285714285715,0.5,6.0,0.8928571428571428,1.2762205587846387,0.0,0.0,0.0,0.0,34.96666666666667,True,Overall accuracy < 60%,0,0,0
678f7fd7097858093f4a9540,0.44642857142857145,0.3870967741935484,9.0,0.0,1.0781346378992112,0.0,0.0,0.0,0.0,53.333333333333336,True,Overall accuracy < 60%; Practice accuracy < 50%,0,0,0
6739ff11a2162a865c36fa64,0.6363636363636364,0.5,12.0,0.0,1.2515928509589602,0.0,0.0,0.0,0.0,89.93333333333334,True,More than 10 consecutive identical responses,0,0,0
5f4d3cb5fdda0b2c403fb801,0.7589285714285714,0.71875,9.0,0.0,1.0966563593026624,0.0,0.0,0.0,0.0,48.78333333333333,False,,0,0,4
677b43188ec54f1186b62411,0.6964285714285714,0.71875,6.0,0.0,0.5937584268859429,0.0,0.0,0.0,0.0,26.98333333333333,False,,0,0,2
5e80b109ca1800791e1ca40c,0.7232142857142857,0.71875,17.0,0.0,0.44891463924683483,0.0,0.0,0.0,0.0,36.4,True,More than 10 consecutive identical responses,0,0,0
6751f6e990f3b3698bf1748b,0.6339285714285714,0.5625,8.0,0.0,0.8588329166483021,0.0,0.0,0.0,0.0,46.43333333333333,False,,0,0,3
678b749494dd9deb974cb25f,0.5089285714285714,0.5,21.0,33.035714285714285,0.7406805048514864,0.0,0.0,0.0,0.0,36.6,True,Overall accuracy < 60%; More than 10 consecutive identical responses; More than 10% of trials with RT < 200ms,0,0,0
6711263a9c4a226969aeb686,0.4642857142857143,0.5,15.0,2.6785714285714284,0.20823993491809184,0.0,0.0,0.0,0.0,96.33333333333331,True,Overall accuracy < 60%; More than 10 consecutive identical responses,0,0,0
5b8bf5dd7b334200011da4aa,0.7946428571428571,0.84375,12.0,0.0,0.43346545828147137,0.0,0.0,0.0,0.0,29.75,True,More than 10 consecutive identical responses,0,0,0
6781563ac4093eb7a7433ff3,0.5315315315315315,0.4375,6.0,0.9009009009009009,1.1880118588017388,0.0,0.0,0.0,0.0,47.5,True,Overall accuracy < 60%; Practice accuracy < 50%,0,0,0
6738c218706186b3fe8e8f56,0.7142857142857143,0.625,10.0,0.0,0.7031166169510273,0.0,0.0,0.0,0.0,62.91666666666666,False,,0,0,3
67826c0cd5858c9d420da7ff,0.5089285714285714,0.40625,4.0,1.7857142857142856,1.3957556862404175,0.0,0.0,0.0,0.0,44.85,True,Overall accuracy < 60%; Practice accuracy < 50%,0,0,0
6111ec391b7048bb53089f5d,0.5137614678899083,0.5,5.0,0.9174311926605505,1.635797369892825,0.0,0.0,0.0,0.0,35.25,True,Overall accuracy < 60%,0,0,0
5c2c62542c45d400014a32e6,0.6513761467889908,0.53125,12.0,0.0,0.8137394479555613,0.0,0.0,0.0,0.0,29.316666666666663,True,More than 10 consecutive identical responses,0,0,0
6778cbf3f0597689c7b5cb4a,0.625,0.59375,12.0,0.0,0.5878527101237787,0.0,0.0,0.0,0.0,49.55,True,More than 10 consecutive identical responses,0,0,0
677aae4e7390567a435c3c23,0.6160714285714286,0.46875,12.0,0.0,0.4263378616180303,0.0,0.0,0.0,0.0,51.65,True,More than 10 consecutive identical responses; Practice accuracy < 50%,0,0,0
6716dbc5faa8d435d67f0ed7,0.5089285714285714,0.3125,5.0,1.7857142857142856,0.5477717603063862,0.0,0.0,0.0,0.0,45.333333333333336,True,Overall accuracy < 60%; Practice accuracy < 50%,0,0,0
67207ddb95109f11e89dcfb8,0.5357142857142857,0.71875,14.0,0.0,0.3474444738977509,0.0,0.0,0.0,0.0,30.9,True,Overall accuracy < 60%; More than 10 consecutive identical responses,0,0,0
676af7a57cae28cecaf83c68,0.5446428571428571,0.5161290322580645,4.0,0.0,1.166510082604402,0.0,0.0,0.0,0.0,34.06666666666667,True,Overall accuracy < 60%,0,0,0
610466e3fb619bdbdf8eb32d,0.6517857142857143,0.53125,7.0,0.0,1.3853909280221037,0.0,0.0,0.0,0.0,64.48333333333333,False,,0,0,6
676d40e2915d059bf7ef62e8,0.5045045045045045,0.46875,26.0,0.9009009009009009,1.045883585074484,0.0,0.0,0.0,0.0,66.8,True,Overall accuracy < 60%; More than 10 consecutive identical responses; Practice accuracy < 50%,0,0,0
67719f52af5175c7f6b1c990,0.4864864864864865,0.41935483870967744,8.0,0.0,1.166801901375394,0.0,0.0,0.0,0.0,45.4,True,Overall accuracy < 60%; Practice accuracy < 50%,0,0,0
6786d6d81286c8386e009009,0.6216216216216216,0.5625,5.0,0.0,1.0055533460045438,0.0,0.0,0.0,0.0,45.833333333333336,False,,0,0,4
674e978e575eccb8dd86167b,0.7589285714285714,0.6875,8.0,0.0,0.5679033119592051,0.0,0.0,0.0,0.0,45.96666666666667,False,,0,0,5
5f974c72a0ed8c0f9ce724ea,0.8303571428571429,0.71875,6.0,0.0,0.2544827943098366,0.0,0.0,0.0,0.0,28.866666666666667,False,,0,0,1
671609ab4a3f2c6c76dfe9d8,0.5267857142857143,0.5,6.0,0.0,0.4201132676285626,0.0,0.0,0.0,0.0,61.4,True,Overall accuracy < 60%,0,0,0
6699c7aea5e77f24097879b7,0.6071428571428571,0.75,7.0,0.0,0.574020838770672,0.0,0.0,0.0,0.0,27.933333333333334,False,,0,0,3
676ef830be06454935800ec3,0.8482142857142857,0.78125,9.0,0.0,0.4036463753286517,0.0,0.0,0.0,0.0,47.61666666666667,False,,0,0,3
66d9fc2d2b46f520118ea65f,0.7321428571428571,0.59375,12.0,0.0,1.2895163798293274,0.0,0.0,0.0,0.0,37.75,True,More than 10 consecutive identical responses,0,0,0
66b0103854c074757187d029,0.44954128440366975,0.46875,6.0,0.0,1.698437394251446,0.0,0.0,0.0,0.0,75.51666666666667,True,Overall accuracy < 60%; Practice accuracy < 50%,0,0,0
664d46ad7cc1780eecfd0c24,0.8660714285714286,0.625,5.0,0.0,0.5855796767602341,0.0,0.0,0.0,0.0,29.9,False,,0,0,3
64143c6c286640f3d1348cf8,0.7142857142857143,0.71875,8.0,0.0,0.6244180281093944,0.0,0.0,0.0,0.0,57.38333333333333,False,,0,0,5
67253dbcd4950a2168aa7741,0.5803571428571429,0.4375,11.0,0.0,0.6978544981435246,0.0,0.0,0.0,0.0,38.516666666666666,True,Overall accuracy < 60%; More than 10 consecutive identical responses; Practice accuracy < 50%,0,0,0
6643bef326f3a4026c0ab2b6,0.7053571428571429,0.71875,12.0,0.0,0.9189658997273226,0.0,0.0,0.0,0.0,30.466666666666665,True,More than 10 consecutive identical responses,0,0,0
5eec6fe1a0f1c4000a8103b2,0.8660714285714286,0.875,10.0,0.0,0.4824393301591686,0.0,0.0,0.0,0.0,29.566666666666663,False,,0,0,3
66cfb812269143794dc55575,0.8303571428571429,0.5625,7.0,0.0,0.7385025193726092,0.0,0.0,0.0,0.0,28.816666666666663,False,,0,0,4
6785fc7153cd5fe0e7d2cc0a,0.5714285714285714,0.4838709677419355,5.0,1.7857142857142856,0.9940757508638859,0.0,0.0,0.0,0.0,23.23333333333333,True,Overall accuracy < 60%; Practice accuracy < 50%,0,0,0
60641cdc8536a607a60e0612,0.6696428571428571,0.5806451612903226,6.0,0.0,0.7726782839403299,0.0,0.0,0.0,0.0,36.95,False,,0,0,4
655f9f56990f2a2d957b1cad,0.6160714285714286,0.65625,7.0,0.0,0.36807509898579677,0.0,0.0,0.0,0.0,78.28333333333333,False,,0,0,3
65f9200b96211e5163eb912e,0.6846846846846847,0.46875,8.0,0.9009009009009009,0.7737538616792516,0.0,0.0,0.0,0.0,38.53333333333333,True,Practice accuracy < 50%,0,0,0
677d1f4f3c247c1a7a6fb57f,0.6936936936936937,0.78125,8.0,0.0,0.4319577470824401,0.0,0.0,0.0,0.0,38.43333333333333,False,,0,0,6
67824ed63aa44baedbe5d46f,0.5660377358490566,0.5666666666666667,8.0,0.9433962264150944,0.8494140522553844,0.0,0.0,0.0,0.0,39.583333333333336,True,Overall accuracy < 60%,0,0,0
6783e8710446ee858344b1b2,0.5089285714285714,0.5806451612903226,8.0,0.0,0.49916871633474585,0.0,0.0,0.0,0.0,31.716666666666665,True,Overall accuracy < 60%,0,0,0
678e46af9bf54902d3db189f,0.5135135135135135,0.6071428571428571,23.0,0.0,1.3525820831073423,0.0,0.0,0.0,0.0,79.36666666666666,True,Overall accuracy < 60%; More than 10 consecutive identical responses,0,0,0
60ff8f48909c68ae805ea2ba,0.8035714285714286,0.65625,6.0,0.0,0.9484765536535937,0.0,0.0,0.0,0.0,33.416666666666664,False,,0,0,3
677bbed2d896aee8efecb51d,0.4732142857142857,0.3125,7.0,0.0,1.4147431040192466,0.0,0.0,0.0,0.0,66.43333333333334,True,Overall accuracy < 60%; Practice accuracy < 50%,0,0,0
6759fef1b173fb9839ebe137,0.4772727272727273,0.59375,5.0,3.4090909090909087,1.3491799685679078,0.0,0.0,0.0,0.0,46.18333333333333,True,Overall accuracy < 60%,0,0,0
655f8b959477c803eb906622,0.7767857142857143,0.6875,4.0,0.0,0.6812765251114659,0.0,0.0,0.0,0.0,42.11666666666667,False,,0,0,5
667998e5c55fe7def1eb7496,0.7767857142857143,0.59375,8.0,0.0,0.3718137394541074,0.0,0.0,0.0,0.0,24.25,False,,0,0,2
677f7658861507001fe69579,0.7053571428571429,0.71875,7.0,0.0,0.6277443381343114,0.0,0.0,0.0,0.0,29.2,False,,0,0,3
673d1231929c7a0a6138a5c1,0.6785714285714286,0.75,6.0,0.0,0.46975375463402164,0.0,0.0,0.0,0.0,29.98333333333333,False,,0,0,4
67860774acf7592ed65861bb,0.5089285714285714,0.5,9.0,0.0,0.779268815405473,0.0,0.0,0.0,0.0,59.583333333333336,True,Overall accuracy < 60%,0,0,0
67628bf652610e40de8a09e8,0.5357142857142857,0.375,10.0,0.0,1.15810792449321,0.0,0.0,0.0,0.0,46.583333333333336,True,Overall accuracy < 60%; Practice accuracy < 50%,0,0,0
66c8abe49537b182dcbd2049,0.7053571428571429,0.78125,6.0,5.357142857142857,0.6850565298277833,0.0,0.0,0.0,0.0,30.35,False,,6,0,1
6752092030f55f6f6a50df9e,0.4909090909090909,0.45161290322580644,13.0,4.545454545454546,1.0208277170172704,0.0,0.0,0.0,0.0,78.06666666666666,True,Overall accuracy < 60%; More than 10 consecutive identical responses; Practice accuracy < 50%,0,0,0
6033fd8bc8659800086d87b0,0.5982142857142857,0.625,6.0,2.6785714285714284,0.633943276188961,0.0,0.0,0.0,0.0,31.433333333333334,True,Overall accuracy < 60%,0,0,0
66c608b7c916342fbca4d075,0.5963302752293578,0.71875,12.0,0.0,1.1670614197454974,0.0,0.0,0.0,0.0,52.68333333333333,True,Overall accuracy < 60%; More than 10 consecutive identical responses,0,0,0
6757688470f9e929a8ea7d90,0.7142857142857143,0.625,7.0,0.0,0.793520032810163,0.0,0.0,0.0,0.0,52.03333333333333,False,,0,0,3
5d96eeed1998fb00177f6b71,0.4943820224719101,0.46875,8.0,5.617977528089887,1.6193524180488488,0.0,0.0,0.0,0.0,84.45,True,Overall accuracy < 60%; Practice accuracy < 50%,0,0,0
5e375b7e76397a6f27f9547f,0.7678571428571429,0.6875,6.0,0.0,0.29928173762881183,0.0,0.0,0.0,0.0,25.116666666666667,False,,0,0,3
6631185d17f78b1877ba88cb,0.5714285714285714,0.5483870967741935,10.0,0.0,0.665869781827158,0.0,0.0,0.0,0.0,36.23333333333333,True,Overall accuracy < 60%,0,0,0
678dfec50cc874af0b76ab04,0.6517857142857143,0.5,22.0,0.0,0.6603357766036712,0.0,0.0,0.0,0.0,85.48333333333333,True,More than 10 consecutive identical responses,0,0,0
67841f5e6071ec5527f9c27f,0.5855855855855856,0.625,11.0,0.0,0.8052257193650394,0.0,0.0,0.0,0.0,30.55,True,Overall accuracy < 60%; More than 10 consecutive identical responses,0,0,0
673a70491f1992a774b72caa,0.5535714285714286,0.53125,10.0,0.0,0.7209154500486771,0.0,0.0,0.0,0.0,84.78333333333333,True,Overall accuracy < 60%,0,0,0
66049315b5c325fdaafea8fa,0.7589285714285714,0.6333333333333333,8.0,0.0,0.9268724889551169,0.0,0.0,0.0,0.0,40.65,False,,0,0,4
67693470121578a6dff417d2,0.7142857142857143,0.6875,11.0,0.0,0.7141633627630296,0.0,0.0,0.0,0.0,35.31666666666667,True,More than 10 consecutive identical responses,0,0,0
677e333ee5769779d2fb960f,0.4642857142857143,0.40625,9.0,0.0,0.6467784325883837,0.0,0.0,0.0,0.0,47.516666666666666,True,Overall accuracy < 60%; Practice accuracy < 50%,0,0,0
65d5d1d59bfc5f7fcbbd742d,0.7589285714285714,0.90625,6.0,0.0,0.39367705393125013,0.0,0.0,0.0,0.0,32.666666666666664,False,,0,0,4
565a3d24c51d430005875042,0.8035714285714286,0.625,8.0,0.0,0.3011158831460916,0.0,0.0,0.0,0.0,37.66666666666666,False,,0,0,4
67352f08f3ab886418574a6a,0.625,0.71875,10.0,0.8928571428571428,0.3633050858501723,0.0,0.0,0.0,0.0,26.08333333333333,False,,1,0,3
675aaec58dfc729c338a52eb,0.6785714285714286,0.375,9.0,0.8928571428571428,0.6820749789080944,0.0,0.0,0.0,0.0,29.866666666666667,True,Practice accuracy < 50%,0,0,0
671d2c608d56f868207f9e9e,0.5181818181818182,0.5,5.0,0.0,0.9863564751976355,0.0,0.0,0.0,0.0,47.7,True,Overall accuracy < 60%,0,0,0
5dd671942b033b5ec8bc97b4,0.7232142857142857,0.53125,7.0,0.0,0.4243066200124125,0.0,0.0,0.0,0.0,49.833333333333336,False,,0,0,2
6759fd05e4ade779f4ee4689,0.5267857142857143,0.5161290322580645,19.0,0.0,1.0772220816189264,0.0,0.0,0.0,0.0,41.96666666666667,True,Overall accuracy < 60%; More than 10 consecutive identical responses,0,0,0
676d800c5499f924389756b5,0.6160714285714286,0.71875,6.0,0.0,0.8306694111078083,0.0,0.0,0.0,0.0,31.466666666666665,False,,0,0,4
583d5dd49c5f2a0001b85f40,0.7946428571428571,0.8125,9.0,0.0,0.3441880149190259,0.0,0.0,0.0,0.0,33.733333333333334,False,,0,0,4
6764736f0048fc3595fbb944,0.4090909090909091,0.4838709677419355,7.0,0.9090909090909091,1.5055387306025887,0.0,0.0,0.0,0.0,62.35,True,Overall accuracy < 60%; Practice accuracy < 50%,0,0,0
674b47940b75eb06298f0c67,0.5446428571428571,0.46875,16.0,0.0,0.4750842424577225,0.0,0.0,0.0,0.0,75.9,True,Overall accuracy < 60%; More than 10 consecutive identical responses; Practice accuracy < 50%,0,0,0
5f1273be29b0711c3cff250f,0.5357142857142857,0.5625,7.0,0.0,0.45782690065354775,0.0,0.0,0.0,0.0,32.8,True,Overall accuracy < 60%,0,0,0
5d6513f46f5284000118ef1d,0.7767857142857143,0.6875,12.0,0.0,0.42611626080072357,0.0,0.0,0.0,0.0,40.35,True,More than 10 consecutive identical responses,0,0,0
55a9f6a1fdf99b2d81b5295f,0.7321428571428571,0.59375,12.0,0.0,0.4532713722004726,0.0,0.0,0.0,0.0,80.63333333333334,True,More than 10 consecutive identical responses,0,0,0
5dac4dad5e53cc001499f1f6,0.8571428571428571,0.78125,10.0,0.0,0.35720147241002786,0.0,0.0,0.0,0.0,37.23333333333333,False,,0,0,1
66972752027327f711a5e612,0.7589285714285714,0.6875,9.0,0.0,0.3301773312344937,0.0,0.0,0.0,0.0,33.05,False,,0,0,1
6743c8da977b0d274dad1fc2,0.5405405405405406,0.5,19.0,0.0,1.0529045206632401,0.0,0.0,0.0,0.0,66.7,True,Overall accuracy < 60%; More than 10 consecutive identical responses,0,0,0
677f26f141f0ce49707accc6,0.6756756756756757,0.7096774193548387,9.0,0.0,0.9677843462679302,0.0,0.0,0.0,0.0,63.4,False,,0,0,4
67329e974d0c9d4221e4c4ac,0.7678571428571429,0.9259259259259259,8.0,0.0,0.8258161325152775,0.0,0.0,0.0,0.0,37.516666666666666,False,,0,0,3
672a3b3af4fe3ca8478cd6c6,0.8392857142857143,0.8125,13.0,0.0,0.5169679317845208,0.0,0.0,0.0,0.0,34.13333333333333,True,More than 10 consecutive identical responses,0,0,0
62786f21e2cc1d6adeea0a79,0.7232142857142857,0.46875,8.0,0.0,0.36766483232500147,0.0,0.0,0.0,0.0,29.366666666666667,True,Practice accuracy < 50%,0,0,0
6170cb31c3656859cca7cc57,0.6696428571428571,0.5625,6.0,0.0,0.4758867061747991,0.0,0.0,0.0,0.0,31.183333333333334,False,,0,0,5
6784b7b57a26bfddbafe40e6,0.5178571428571429,0.39285714285714285,8.0,0.0,0.8647637526300309,0.0,0.0,0.0,0.0,76.46666666666667,True,Overall accuracy < 60%; Practice accuracy < 50%,0,0,0
67863d420c27f3b6e5f57073,0.41964285714285715,0.46875,6.0,0.0,0.6852954814588955,0.0,0.0,0.0,0.0,32.016666666666666,True,Overall accuracy < 60%; Practice accuracy < 50%,0,0,0
5c0245f0a9d1ef00011816ea,0.5803571428571429,0.59375,13.0,0.0,1.2576846325906579,0.0,0.0,0.0,0.0,29.683333333333334,True,Overall accuracy < 60%; More than 10 consecutive identical responses,0,0,0
66eddeb07ae1f7510780b109,0.75,0.7419354838709677,9.0,0.0,0.42380158959677106,0.0,0.0,0.0,0.0,37.48333333333333,False,,0,0,2
66f198a897fe47706e8cdfd2,0.6339285714285714,0.5625,10.0,0.0,0.54833277428673,0.0,0.0,0.0,0.0,31.866666666666667,False,,0,0,4
668f41cc549b163c5d45534e,0.6607142857142857,0.625,6.0,0.0,0.7927003897431679,0.0,0.0,0.0,0.0,23.566666666666663,False,,0,0,4
6711c745bcc0626c2de36d07,0.6517857142857143,0.625,5.0,0.0,0.6466505608897053,0.0,0.0,0.0,0.0,30.566666666666663,False,,0,0,5
6701b597d540eba733ee58c9,0.4636363636363636,0.53125,14.0,0.0,1.492538984457113,0.0,0.0,0.0,0.0,26.133333333333333,True,Overall accuracy < 60%; More than 10 consecutive identical responses,0,0,0
674d61ec8e80ca5159d6aa56,0.5045045045045045,0.5161290322580645,7.0,1.8018018018018018,1.048424199651274,0.0,0.0,0.0,0.0,45.65,True,Overall accuracy < 60%,0,0,0
6740484e188a64793529ee77,0.6607142857142857,0.6451612903225806,10.0,0.0,1.3042639869054922,0.0,0.0,0.0,0.0,40.833333333333336,False,,0,0,5
6761f8be0534cd92e822e611,0.6517857142857143,0.7333333333333333,14.0,0.0,0.31962403194782507,0.0,0.0,0.0,0.0,30.6,True,More than 10 consecutive identical responses,0,0,0
6761312f87e4c57c3259eb11,0.5803571428571429,0.625,7.0,0.0,0.6140672416682541,0.0,0.0,0.0,0.0,37.43333333333333,True,Overall accuracy < 60%,0,0,0
66a6bbb40b48d0e4f326767e,0.7410714285714286,0.6875,8.0,0.0,0.5335780677032901,0.0,0.0,0.0,0.0,48.73333333333333,False,,0,0,6
62e029ff528ea30b4508eaf5,0.7053571428571429,0.78125,11.0,0.0,0.2704849409223474,0.0,0.0,0.0,0.0,29.366666666666667,True,More than 10 consecutive identical responses,0,0,0
67896d4bcf7daeb9b9c6945e,0.5267857142857143,0.46875,7.0,0.0,0.5281387899389931,0.0,0.0,0.0,0.0,42.95,True,Overall accuracy < 60%; Practice accuracy < 50%,0,0,0
671c5ad0eb30c87c11b22ec4,0.8303571428571429,0.8387096774193549,4.0,0.0,0.6673291256416863,0.0,0.0,0.0,0.0,35.05,False,,0,0,3
649d257f5e8bfe6ee264e160,0.44642857142857145,0.5,10.0,0.8928571428571428,0.6533386259021585,0.0,0.0,0.0,0.0,102.95,True,Overall accuracy < 60%,0,0,0
678a318061025ebe627384b6,0.44642857142857145,0.40625,6.0,2.6785714285714284,0.44609282006684053,0.0,0.0,0.0,0.0,84.3,True,Overall accuracy < 60%; Practice accuracy < 50%,0,0,0
6630ec1ebe18d48a3cecb54e,0.8214285714285714,0.78125,8.0,0.0,0.2531843986887467,0.0,0.0,0.0,0.0,29.966666666666665,False,,0,0,4
6710e7d85362bdd95a82bcbf,0.6964285714285714,0.625,10.0,0.0,0.3862216368406038,0.0,0.0,0.0,0.0,78.01666666666667,False,,0,0,4
5a6e8532e6cc4a0001b6d728,0.5982142857142857,0.4375,7.0,0.0,0.4849074343826484,0.0,0.0,0.0,0.0,41.06666666666667,True,Overall accuracy < 60%; Practice accuracy < 50%,0,0,0
66c4a2414f979ae2a78a8adc,0.6132075471698113,0.7037037037037037,22.0,0.0,1.2850919244105012,0.0,0.0,0.0,0.0,38.15,True,More than 10 consecutive identical responses,0,0,0
63e6378e04ade071ebf9ff9c,0.41964285714285715,0.6451612903225806,13.0,25.892857142857146,0.6725560987328332,0.0,0.0,0.0,0.0,36.45,True,Overall accuracy < 60%; More than 10 consecutive identical responses; More than 10% of trials with RT < 200ms,0,0,0
5a6eac90d5d4cb0001d6815a,0.8392857142857143,0.8125,7.0,0.0,0.19636283980841557,0.0,0.0,0.0,0.0,29.666666666666668,False,,0,0,1
674e0771f3216542d0539c7b,0.7678571428571429,0.65625,5.0,0.0,0.6058460005980373,0.0,0.0,0.0,0.0,28.683333333333334,False,,0,0,2
67759a26b7a5424ec5d0c0a1,0.6875,0.59375,9.0,0.0,0.8255766698135967,0.0,0.0,0.0,0.0,36.63333333333333,False,,0,0,3
66a508e29deb15f57d4458f1,0.8214285714285714,0.8125,8.0,0.0,0.4024353120106646,0.0,0.0,0.0,0.0,39.7,False,,0,0,2
674ca6e73e98a96de2cda112,0.7410714285714286,0.625,6.0,0.0,0.29127058765841385,0.0,0.0,0.0,0.0,34.35,False,,0,0,3
663a80393a72dac091c817b5,0.7678571428571429,0.8125,7.0,0.0,0.5710761331965226,0.0,0.0,0.0,0.0,27.066666666666663,False,,0,0,4
56c15833eb5b22000d5babba,0.7142857142857143,0.65625,8.0,0.0,0.7076097583162277,0.0,0.0,0.0,0.0,38.25,False,,0,0,3
672b60eb227e2b01fd1f88b5,0.48214285714285715,0.40625,5.0,0.0,1.3389170897893998,0.0,0.0,0.0,0.0,36.7,True,Overall accuracy < 60%; Practice accuracy < 50%,0,0,0
58d1f1038084450001956fdc,0.7142857142857143,0.75,10.0,0.0,0.33700011812149205,0.0,0.0,0.0,0.0,22.016666666666666,False,,0,0,3
5eb342dff78ab11407daf144,0.6964285714285714,0.59375,10.0,0.8928571428571428,0.2683811107917736,0.0,0.0,0.0,0.0,26.383333333333333,False,,1,0,3
67880bb68accd49a72b45565,0.5555555555555556,0.4838709677419355,9.0,0.0,1.2553174832689231,0.0,0.0,0.0,0.0,27.0,True,Overall accuracy < 60%; Practice accuracy < 50%,0,0,0
678c417ed431a331d3f547ec,0.5982142857142857,0.5,14.0,0.0,0.7911462002152483,0.0,0.0,0.0,0.0,26.2,True,Overall accuracy < 60%; More than 10 consecutive identical responses,0,0,0
669b00d76af70db9da1b0301,0.7117117117117117,0.6875,7.0,0.0,0.5482988130883292,0.0,0.0,0.0,0.0,62.833333333333336,False,,0,0,4
669284eabea5b8c9655927da,0.6788990825688074,0.6551724137931034,11.0,0.9174311926605505,0.6713557350440634,0.0,0.0,0.0,0.0,58.78333333333333,True,More than 10 consecutive identical responses,0,0,0
66439d339e8b25efa8cb4b9a,0.6785714285714286,0.5806451612903226,9.0,0.0,0.652207212451722,0.0,0.0,0.0,0.0,45.016666666666666,False,,0,0,2
61140d2c5d85c524932a2c59,0.7678571428571429,0.6875,11.0,0.0,0.3260653819114334,0.0,0.0,0.0,0.0,29.78333333333333,True,More than 10 consecutive identical responses,0,0,0
663ec602f5dc7af6ccc1c2d0,0.8303571428571429,0.75,9.0,0.0,0.5340979921772293,0.0,0.0,0.0,0.0,41.45,False,,0,0,5
66ace0fa42d9a6710036025c,0.4732142857142857,0.65625,15.0,10.714285714285714,0.6114452927160008,0.0,0.0,0.0,0.0,28.45,True,Overall accuracy < 60%; More than 10 consecutive identical responses; More than 10% of trials with RT < 200ms,0,0,0
6779f13fe54a982becaa1b3f,0.6607142857142857,0.5806451612903226,6.0,0.0,0.727129467948304,0.0,0.0,0.0,0.0,51.81666666666667,False,,0,0,4
671d48bbee99c1439ae0d0de,0.7678571428571429,0.65625,8.0,0.0,0.6465478817890798,0.0,0.0,0.0,0.0,65.83333333333333,False,,0,0,4
678dbad423480901e47ad481,0.8571428571428571,0.8387096774193549,9.0,0.0,0.7474270861831485,0.0,0.0,0.0,0.0,28.65,False,,0,0,5
675402ab00652943d80d7ddb,0.8303571428571429,0.8125,5.0,0.0,0.5536904288998873,0.0,0.0,0.0,0.0,50.46666666666667,False,,0,0,4
662848c40caa342b28493265,0.7545454545454545,0.71875,8.0,0.0,0.45572965708881835,0.0,0.0,0.0,0.0,42.333333333333336,False,,0,0,4
678c0db9c6a63a1de276a649,0.8839285714285714,0.75,6.0,0.0,0.7562777725411907,0.0,0.0,0.0,0.0,34.35,False,,0,0,4
6643d97ef7bef1480ec1166b,0.7053571428571429,0.6875,11.0,0.8928571428571428,0.4527221095414538,0.0,0.0,0.0,0.0,39.0,True,More than 10 consecutive identical responses,0,0,0
6733c03807f9f957e2eb1382,0.7678571428571429,0.78125,6.0,0.0,0.5973395098347778,0.0,0.0,0.0,0.0,30.28333333333333,False,,0,0,3
678a5c44e1295faaebfc8ee4,0.41964285714285715,0.65625,11.0,0.0,1.059047043128492,0.0,0.0,0.0,0.0,45.53333333333333,True,Overall accuracy < 60%; More than 10 consecutive identical responses,0,0,0
67228eb9f3f694a42b636b7f,0.6846846846846847,0.75,8.0,0.9009009009009009,0.4239546794829941,0.0,0.0,0.0,0.0,24.05,False,,1,0,3
60d3d517873ac00f2ed811e5,0.8392857142857143,0.8125,5.0,0.0,0.6427315298163341,0.0,0.0,0.0,0.0,28.23333333333333,False,,0,0,3
66e28103f28d6e15a3f4f1f0,0.6607142857142857,0.5,11.0,0.0,0.7860348539191963,0.0,0.0,0.0,0.0,42.21666666666667,True,More than 10 consecutive identical responses,0,0,0
67808d0260180c6133619b2b,0.6696428571428571,0.65625,13.0,0.0,0.5910602590945803,0.0,0.0,0.0,0.0,28.53333333333333,True,More than 10 consecutive identical responses,0,0,0
6547bf8012d4702680d55663,0.5892857142857143,0.3793103448275862,6.0,1.7857142857142856,0.41461339292311367,0.0,0.0,0.0,0.0,35.333333333333336,True,Overall accuracy < 60%; Practice accuracy < 50%,0,0,0
6742ecbc50ae979ed5099784,0.5675675675675675,0.41935483870967744,5.0,0.9009009009009009,1.2337485449928234,0.0,0.0,0.0,0.0,39.65,True,Overall accuracy < 60%; Practice accuracy < 50%,0,0,0
6787c530d8f7650e446d17a1,0.5178571428571429,0.5333333333333333,7.0,2.6785714285714284,1.0939225564264843,0.0,0.0,0.0,0.0,65.41666666666667,True,Overall accuracy < 60%,0,0,0
610b06f1534fdc7ce455d168,0.6696428571428571,0.5625,8.0,0.0,0.6209011613548606,0.0,0.0,0.0,0.0,32.86666666666667,False,,0,0,3
67196116a2212bed3b93f4dc,0.41964285714285715,0.46875,11.0,0.0,0.6135912033737329,0.0,0.0,0.0,0.0,58.68333333333333,True,Overall accuracy < 60%; More than 10 consecutive identical responses; Practice accuracy < 50%,0,0,0
673283141ee7ec9141e8bcf4,0.5178571428571429,0.53125,24.0,41.07142857142857,0.38465810212980767,0.0,0.0,0.0,0.0,21.23333333333333,True,Overall accuracy < 60%; More than 10 consecutive identical responses; More than 10% of trials with RT < 200ms,0,0,0
61216580798476e2db75fc79,0.7767857142857143,0.75,12.0,0.0,0.5911351444543025,0.0,0.0,0.0,0.0,28.33333333333333,True,More than 10 consecutive identical responses,0,0,0
6786e77f621a9c066c534e78,0.75,0.53125,6.0,0.0,0.7441932715378364,0.0,0.0,0.0,0.0,29.95,False,,0,0,4
66733b0613db805ab4f05114,0.625,0.625,5.0,0.0,0.3782132874210705,0.0,0.0,0.0,0.0,36.78333333333333,False,,0,0,4
674ba6a23248254461461b54,0.7053571428571429,0.53125,8.0,0.0,0.44315558393112586,0.0,0.0,0.0,0.0,29.28333333333333,False,,0,0,2
6761934aa62aae0c93863233,0.7767857142857143,0.78125,8.0,0.0,0.9677717829760017,0.0,0.0,0.0,0.0,30.78333333333333,False,,0,0,4
668ddafedbce64d6094e759e,0.7946428571428571,0.5161290322580645,5.0,0.0,0.4517407747311477,0.0,0.0,0.0,0.0,31.08333333333333,False,,0,0,2
678ac1267cd2b3ce8d1fbf69,0.6545454545454545,0.5,6.0,0.0,0.7421662088314692,0.0,0.0,0.0,0.0,31.516666666666666,False,,0,0,5
665f97db56096b743c2332b1,0.7321428571428571,0.625,9.0,0.0,0.5557537179854918,0.0,0.0,0.0,0.0,29.83333333333333,False,,0,0,3
674dc32400f538862eb27f89,0.8392857142857143,0.78125,9.0,0.8928571428571428,0.5255952931737524,0.0,0.0,0.0,0.0,50.71666666666667,False,,1,0,1
6734c8a6c51b8aee49adbd1b,0.5135135135135135,0.5357142857142857,25.0,0.0,1.412960371079962,0.0,0.0,0.0,0.0,60.36666666666667,True,Overall accuracy < 60%; More than 10 consecutive identical responses,0,0,0
5efe44bebdee09152fe08acc,0.8214285714285714,0.78125,7.0,0.0,0.7815375465166,0.0,0.0,0.0,0.0,26.25,False,,0,0,3
676d592187581f23f60331bb,0.6875,0.7,10.0,0.0,0.7659710280765444,0.0,0.0,0.0,0.0,96.18333333333334,False,,0,0,4
61052deed380657fcbe37682,0.7321428571428571,0.625,5.0,0.0,0.6831889072043863,0.0,0.0,0.0,0.0,74.6,False,,0,0,4
66dd9c5b1c02410a87c068e5,0.8482142857142857,0.78125,5.0,0.0,0.27028266508901205,0.0,0.0,0.0,0.0,40.15,False,,0,0,4
677a8ed897bc0e0f12d23e86,0.7142857142857143,0.5625,16.0,0.0,1.0375588754859855,0.0,0.0,0.0,0.0,47.833333333333336,True,More than 10 consecutive identical responses,0,0,0
6740f034985ba328ea9bacbf,0.48598130841121495,0.46875,8.0,0.0,0.7555604629143715,0.0,0.0,0.0,0.0,57.96666666666667,True,Overall accuracy < 60%; Practice accuracy < 50%,0,0,0
6766dee165ff1cc0f8decea0,0.5892857142857143,0.59375,14.0,0.0,0.5312600505401016,0.0,0.0,0.0,0.0,38.91666666666666,True,Overall accuracy < 60%; More than 10 consecutive identical responses,0,0,0
669be65b7f0c1a71305969d1,0.5178571428571429,0.4375,7.0,5.357142857142857,0.5288258218095827,0.0,0.0,0.0,0.0,50.36666666666667,True,Overall accuracy < 60%; Practice accuracy < 50%,0,0,0
5f4539788c48690d1f71bfcc,0.75,0.3125,10.0,0.0,1.0000704721110334,0.0,0.0,0.0,0.0,44.86666666666667,True,Practice accuracy < 50%,0,0,0
677412c094eeb8f1992fc3ae,0.6875,0.65625,9.0,0.0,0.6199240304449941,0.0,0.0,0.0,0.0,34.15,False,,0,0,3
6647e8618c77f7b938865d25,0.5535714285714286,0.625,6.0,0.0,0.5706183388195376,0.0,0.0,0.0,0.0,33.06666666666667,True,Overall accuracy < 60%,0,0,0
5630b79b733ea00011164946,0.8660714285714286,0.6875,12.0,0.0,0.4801660478349174,0.0,0.0,0.0,0.0,31.03333333333333,True,More than 10 consecutive identical responses,0,0,0
615b01ee4cd1755b6144e0a4,0.5178571428571429,0.40625,8.0,6.25,1.5196560533763752,0.0,0.0,0.0,0.0,45.333333333333336,True,Overall accuracy < 60%; Practice accuracy < 50%,0,0,0
671983e8022d66fd0242265b,0.7321428571428571,0.78125,10.0,0.0,0.3985995875483236,0.0,0.0,0.0,0.0,26.566666666666663,False,,0,0,3
65a4598a91a3f0e75374a8c4,0.5267857142857143,0.625,8.0,0.0,0.6935135622697826,0.0,0.0,0.0,0.0,54.833333333333336,True,Overall accuracy < 60%,0,0,0
6738acfff83934e21342c109,0.48214285714285715,0.5625,26.0,18.75,1.0774195157746904,0.0,0.0,0.0,0.0,30.633333333333333,True,Overall accuracy < 60%; More than 10 consecutive identical responses; More than 10% of trials with RT < 200ms,0,0,0
6786177b26851e38285d94a1,0.6160714285714286,0.78125,7.0,0.0,0.4424172081574605,0.0,0.0,0.0,0.0,32.583333333333336,False,,0,0,3
670d6526115bb30df10ebd72,0.625,0.5333333333333333,7.0,0.0,0.6226590504454851,0.0,0.0,0.0,0.0,95.15,False,,0,0,2
678755cc09f64198c984b217,0.4954954954954955,0.6875,5.0,0.9009009009009009,0.6937626483299992,0.0,0.0,0.0,0.0,31.48333333333333,True,Overall accuracy < 60%,0,0,0
673d814ffa7de7d961e6bc53,0.9107142857142857,0.78125,7.0,0.0,0.6731520012652659,0.0,0.0,0.0,0.0,27.166666666666668,False,,0,0,3
678b3480eed43ba29dc48ed5,0.7102803738317757,0.5,24.0,0.0,1.4005835600747079,0.0,0.0,0.0,0.0,25.3,True,More than 10 consecutive identical responses,0,0,0
5ac5260dfa3b4e0001736dd3,0.7946428571428571,0.6875,6.0,0.0,0.6707274621301847,0.0,0.0,0.0,0.0,36.1,False,,0,0,3
62fb84322433c8d7e890a145,0.49107142857142855,0.65625,6.0,0.0,0.3079085496201996,0.0,0.0,0.0,0.0,29.716666666666665,True,Overall accuracy < 60%,0,0,0
666dd3d9e53e0ff59d7cc164,0.45535714285714285,0.46875,12.0,0.0,0.29975284108212924,0.0,0.0,0.0,0.0,51.81666666666667,True,Overall accuracy < 60%; More than 10 consecutive identical responses; Practice accuracy < 50%,0,0,0
5ec0260375bf15077a00e645,0.7747747747747747,0.6451612903225806,11.0,0.9009009009009009,0.37261213090815776,0.0,0.0,0.0,0.0,32.88333333333333,True,More than 10 consecutive identical responses,0,0,0
671050c226ff82aa6081d587,0.7321428571428571,0.5625,8.0,0.0,0.5837376494053929,0.0,0.0,0.0,0.0,37.91666666666666,False,,0,0,2
